srNo,timestamp,ax,ay,az,gx,gy,gz,temp
87440,1661545937137,-1.2416,-0.3041,0.2923,-1.51,3.14,1.75,
87441,1661545937137,-1.1493,-0.2005,0.3718,-4.7,-1.85,-5.91,
87442,1661545937139,-1.1103,-0.0428,0.0769,-5.37,0.7,-3.07,
87443,1661545937139,-1.1635,-0.0521,0.2508,-0.62,8.47,-2.7,
87444,1661545937139,-1.123,-0.2113,-0.0891,-1.61,6.7,-4.81,
87445,1661545937140,-1.1567,0.1974,0.1072,-6.19,9.23,-2.43,
87446,1661545937140,-1.2079,0.2677,0.2327,-1.58,4.51,-3.53,
87447,1661545937140,-1.1259,-0.1957,-0.2497,-0.7,-5.07,3.22,
87448,1661545937140,-1.1337,-0.1976,0.0398,-3.51,0.52,0.12,
87449,1661545937142,-1.1249,0.2677,0.3567,-7.29,3.05,-1.07,
87450,1661545937142,-1.101,-0.0848,-0.0691,-5.78,0.53,-1.25,
87451,1661545937142,-1.1059,-0.1664,0.0442,-5.9,4.41,0.21,
87452,1661545937142,-1.1068,0.0109,0.4329,-7.87,4.18,1.66,
87453,1661545937143,-1.1054,-0.0453,0.1228,-5.5,-1.01,6.68,
87454,1661545937143,-1.1186,-0.1156,0.2268,-2.8,6.86,4.96,
87455,1661545937144,-1.0277,0.006,0.3045,-5.5,12.45,2.3,
87456,1661545937144,-0.913,0.1017,0.0501,-11.2,0.18,4.68,
87457,1661545937144,-0.8608,0.1569,-0.2263,-7.41,0.61,5.49,
87458,1661545937145,-1.0702,0.0031,0.135,-2.82,4.91,3.86,
87459,1661545937145,-0.8788,-0.0028,-0.0168,2.09,1.95,4.13,
87460,1661545937146,-0.9936,0.192,-0.0471,-0.7,0.77,4.5,
87461,1661545937146,-0.9364,0.278,0.2224,0.72,14.16,7.6,
87462,1661545937146,-0.8339,0.0885,0.0076,-1.6,1.2,8.24,
87463,1661545937148,-0.6747,0.5246,0.0432,-2.71,5.93,6.59,
87464,1661545937148,-0.8554,0.4938,-0.0202,4.61,1.22,10.51,
87465,1661545937149,-0.9477,0.0006,-0.0481,11.31,13.3,7.78,
87466,1661545937149,-0.9369,0.34,0.2796,10.72,13.56,7.32,
87467,1661545937149,-0.8066,0.6105,-0.2341,2.9,12.78,8.79,
87468,1661545937150,-0.6708,0.6622,-0.4446,1.0,5.6,6.41,
87469,1661545937150,-0.8149,0.422,-0.2917,2.9,2.21,2.85,
87470,1661545937150,-0.8168,0.213,-0.053,7.21,-9.19,3.95,
87471,1661545937151,-0.913,0.735,-0.1242,9.18,-18.51,4.68,
87472,1661545937151,-0.8368,0.6334,-0.0173,14.9,-13.52,3.58,
87473,1661545937152,-0.8871,0.3053,0.0301,16.59,-6.84,-0.25,
87474,1661545937152,-0.808,0.3615,0.0984,10.78,3.48,-0.89,
87475,1661545937152,-0.8651,0.5719,0.0374,7.69,-3.45,-1.16,
87476,1661545937153,-0.872,0.3283,-0.0617,12.07,-2.02,-8.27,
87477,1661545937153,-0.8334,0.1173,0.0579,17.4,-1.51,-4.08,
87478,1661545937154,-0.8559,0.0861,0.0833,15.81,2.99,-2.17,
87479,1661545937154,-0.892,0.192,-0.2068,12.7,-11.07,-7.63,
87480,1661545937155,-0.9203,-0.0082,-0.2366,11.49,-6.93,-5.18,
87481,1661545937155,-1.0331,-0.1048,0.0813,9.18,-2.19,-5.18,
87482,1661545937156,-0.9359,-0.0189,-0.1555,8.29,-1.85,-3.07,
87483,1661545937156,-1.0517,-0.1097,0.0662,8.4,-0.75,2.39,
87484,1661545937156,-1.081,-0.1068,0.283,10.2,-4.21,-1.07,
87485,1661545937157,-1.1093,-0.1254,0.1433,3.1,-20.45,-1.99,
87486,1661545937157,-1.0463,-0.017,-0.0583,4.81,-4.96,-1.35,
87487,1661545937158,-1.1469,-0.0262,0.3113,8.9,20.31,-1.25,
87488,1661545937158,-1.1029,-0.2504,0.0198,5.92,16.26,-0.43,
87489,1661545937159,-1.0443,0.0773,-0.3122,1.7,-1.85,-5.63,
87490,1661545937159,-1.0795,0.1232,0.1521,2.0,-7.27,2.21,
87491,1661545937160,-1.2187,0.0455,0.1726,3.9,-18.77,2.76,
87492,1661545937160,-1.1288,-0.0287,-0.1579,1.33,-26.02,-5.18,
87493,1661545937161,-1.06,0.048,-0.1013,0.6,-9.13,1.4,
87494,1661545937161,-1.1303,0.0651,0.2571,-0.12,0.44,-3.71,
87495,1661545937161,-1.1796,-0.1434,0.1399,-0.32,2.04,-2.8,
87496,1661545937162,-1.1005,-0.1952,0.0589,-0.19,-3.04,-3.16,
87497,1661545937162,-1.1108,-0.0765,0.1731,1.7,-3.38,-6.63,
87498,1661545937163,-1.165,-0.1957,0.1668,2.9,-1.94,-4.35,
87499,1661545937163,-1.1513,-0.4242,0.0232,-3.79,0.85,-1.53,
87500,1661545937164,-1.161,-0.3133,0.2146,-8.89,7.96,-3.8,
87501,1661545937164,-1.2382,-0.4007,0.0701,-10.4,5.26,-0.25,
87502,1661545937166,-1.0888,-0.494,0.0105,-6.8,-1.68,2.39,
87503,1661545937166,-1.1923,-0.3861,0.2996,-6.07,-4.03,1.13,
87504,1661545937166,-1.0526,-0.2518,0.197,-8.01,-2.61,2.03,
87505,1661545937167,-1.2411,-0.3851,0.0911,-9.07,6.04,5.86,
87506,1661545937167,-1.1816,-0.121,0.5662,-11.59,15.48,1.4,
87507,1661545937167,-1.1762,-0.0355,0.2991,-11.99,12.11,1.48,
87508,1661545937168,-1.0692,0.0612,0.0706,-8.89,8.56,2.76,
87509,1661545937168,-1.0087,0.091,0.0252,-5.79,5.93,2.76,
87510,1661545937169,-0.9999,0.0246,0.3225,-3.4,11.52,9.32,
87511,1661545937169,-0.954,0.4196,-0.0378,-4.5,2.04,6.59,
87512,1661545937170,-0.9159,0.5236,-0.2658,-5.2,0.44,4.5,
87513,1661545937170,-0.7724,0.3512,-0.1179,-4.59,3.49,10.05,
87514,1661545937170,-0.956,0.3912,0.0613,-3.51,3.05,7.78,
87515,1661545937170,-0.8852,0.3698,-0.1843,-0.67,-3.86,7.96,
87516,1661545937171,-0.871,0.4796,0.1189,3.39,-1.01,4.41,
87517,1661545937171,-0.9023,0.5944,0.2918,2.9,2.71,6.5,
87518,1661545937172,-0.9091,0.2765,-0.0593,2.71,-0.42,3.49,
87519,1661545937172,-0.8725,0.2213,-0.011,1.81,7.7,3.67,
87520,1661545937173,-0.9257,0.3283,0.2429,6.7,9.66,2.12,
87521,1661545937173,-0.9018,0.2379,0.0808,7.69,7.46,2.94,
87522,1661545937173,-0.828,0.1408,-0.1882,6.11,5.78,6.68,
87523,1661545937174,-0.8446,0.2418,0.0755,3.88,7.96,9.96,
87524,1661545937174,-0.9208,0.1447,0.0042,5.39,2.13,4.13,
87525,1661545937175,-0.9008,0.0729,-0.3244,7.59,-2.02,4.5,
87526,1661545937175,-1.0468,0.1505,0.1551,5.6,-4.55,-0.34,
87527,1661545937176,-0.8105,0.234,0.1746,6.09,-12.42,2.58,
87528,1661545937176,-0.8442,0.2433,0.0144,4.2,-15.55,5.23,
87529,1661545937177,-0.9838,0.3444,0.0154,9.89,-4.31,1.75,
87530,1661545937177,-0.7138,0.2872,0.0066,11.48,-5.83,5.14,
87531,1661545937177,-0.7279,0.4899,0.3269,6.79,9.06,0.3,
87532,1661545937178,-0.8598,0.7438,0.2161,9.69,-3.38,-2.89,
87533,1661545937178,-0.8925,0.1769,-0.6819,9.89,-13.86,3.22,
87534,1661545937179,-0.8608,0.4845,-0.0808,12.58,-3.21,-1.35,
87535,1661545937179,-0.9413,0.6603,-0.1155,13.42,5.18,-1.99,
87536,1661545937181,-0.7235,0.1642,-0.8205,18.6,-3.6,1.84,
87537,1661545937181,-0.9076,0.2199,-0.5222,13.1,1.37,-0.8,
87538,1661545937181,-0.9482,0.3825,0.3928,9.4,-12.93,1.93,
87539,1661545937182,-0.9086,0.1652,-0.4548,8.09,-26.29,-5.08,
87540,1661545937182,-1.0326,0.1857,0.0877,12.68,-10.82,1.57,
87541,1661545937182,-1.1713,-0.1971,0.6131,11.49,-0.32,-2.8,
87542,1661545937183,-1.0238,-0.141,-0.0422,8.08,5.43,-1.9,
87543,1661545937183,-1.0336,-0.0541,-0.1384,5.8,8.39,-5.18,
87544,1661545937183,-1.2167,-0.3133,0.2571,3.83,0.29,-7.91,
87545,1661545937184,-1.1567,-0.4296,0.094,4.22,-17.57,-2.98,
87546,1661545937184,-1.248,-0.2699,0.0691,0.42,-12.74,-6.72,
87547,1661545937185,-1.1698,-0.349,-0.0559,1.68,-5.74,-5.27,
87548,1661545937186,-1.1034,-0.4955,0.0491,-2.68,-2.17,-2.98,
87549,1661545937187,-1.0273,-0.2113,0.2268,-8.19,-3.97,-7.36,
87550,1661545937187,-1.037,-0.1166,0.0271,-1.7,-15.46,-3.71,
87551,1661545937187,-1.2333,-0.3041,0.1394,-0.1,0.01,0.85,
87552,1661545937187,-1.203,-0.2611,0.4759,-5.99,4.67,-1.62,
87553,1661545937189,-1.1474,-0.0111,0.1453,-9.07,8.4,-6.99,
87554,1661545937189,-1.1562,0.0021,0.2092,-7.59,11.85,-5.18,
87555,1661545937189,-1.1781,-0.2474,0.0589,-0.19,11.43,-7.54,
87556,1661545937189,-0.9486,-0.2059,0.0379,-5.2,6.7,-5.82,
87557,1661545937189,-1.1938,0.2814,0.136,-7.7,-2.02,-9.28,
87558,1661545937190,-1.1449,-0.0331,-0.1794,-5.49,-9.62,-8.27,
87559,1661545937190,-1.1601,-0.2875,0.0969,-4.99,3.99,-5.08,
87560,1661545937191,-1.1025,0.2565,0.4002,-6.18,8.91,-9.01,
87561,1661545937191,-1.1303,0.0348,-0.0642,-6.51,1.02,-1.99,
87562,1661545937192,-1.0981,-0.1434,0.0247,-5.2,5.51,0.03,
87563,1661545937192,-1.1039,-0.0751,0.533,-7.18,3.66,2.12,
87564,1661545937193,-1.0697,-0.0106,0.1341,-4.8,-3.71,-0.34,
87565,1661545937193,-1.1454,-0.1117,0.1551,-1.9,5.26,2.85,
87566,1661545937193,-1.081,-0.0384,0.4651,-4.19,17.44,4.13,
87567,1661545937194,-0.9296,0.0382,0.2019,-11.99,6.1,1.57,
87568,1661545937194,-0.8066,0.1608,-0.3152,-13.09,1.37,6.86,
87569,1661545937195,-1.04,0.0353,0.0467,-3.09,-1.01,7.96,
87570,1661545937195,-0.8886,-0.0746,0.0794,1.82,-0.14,11.06,
87571,1661545937196,-1.0551,0.3073,-0.0251,0.6,-1.25,7.14,
87572,1661545937196,-0.9496,0.3537,0.0745,-1.38,8.07,4.77,
87573,1661545937197,-0.8119,0.0831,0.0423,-3.78,6.62,8.97,
87574,1661545937197,-0.6986,0.4572,0.1243,-6.89,12.78,1.13,
87575,1661545937197,-0.9447,0.4191,-0.1203,1.1,3.57,2.3,
87576,1661545937198,-0.9916,0.1085,-0.1594,8.99,9.15,5.05,
87577,1661545937198,-0.9428,0.2824,0.2327,13.49,12.62,3.67,
87578,1661545937199,-0.7924,0.5578,-0.0202,5.7,16.42,3.22,
87579,1661545937199,-0.6156,0.737,-0.5198,0.1,5.09,0.03,
87580,1661545937200,-0.7572,0.5304,-0.5188,1.39,2.64,3.49,
87581,1661545937200,-0.7997,0.1574,-0.0764,3.38,-4.9,4.96,
87582,1661545937200,-0.9008,0.6476,-0.0993,9.5,-14.19,-1.8,
87583,1661545937202,-0.8105,0.7477,-0.2048,15.19,-14.71,2.58,
87584,1661545937202,-0.9076,0.256,0.0232,14.09,-8.79,0.12,
87585,1661545937203,-0.8534,0.3576,0.1887,5.91,-1.93,-1.9,
87586,1661545937203,-0.8769,0.5661,0.0896,4.41,-4.89,-3.8,
87587,1661545937203,-0.8075,0.3869,-0.1838,10.0,-1.85,-6.72,
87588,1661545937203,-0.807,0.1535,0.095,17.09,3.31,-7.27,
87589,1661545937205,-0.8871,0.1163,0.0442,13.91,7.14,-8.82,
87590,1661545937205,-0.8925,0.2184,-0.1985,11.68,-9.04,-4.54,
87591,1661545937206,-0.9008,0.0685,-0.343,8.7,-14.19,-6.44,
87592,1661545937206,-1.0785,-0.161,0.1082,8.38,-6.17,-6.53,
87593,1661545937206,-0.9477,-0.0194,-0.1755,11.31,-3.77,-5.54,
87594,1661545937207,-0.9872,-0.0814,-0.0271,9.8,4.33,-3.71,
87595,1661545937207,-1.016,-0.0653,0.426,6.99,-1.51,-6.0,
87596,1661545937207,-1.0683,-0.2338,0.0569,2.71,-15.05,-2.98,
87597,1661545937207,-1.038,-0.0917,0.0349,4.22,-15.03,-2.26,
87598,1661545937208,-1.122,0.0016,0.3504,6.9,6.77,-6.27,
87599,1661545937208,-1.1103,-0.2533,0.1873,9.68,14.31,-0.89,
87600,1661545937209,-1.04,-0.0267,-0.3108,0.74,11.03,-2.89,
87601,1661545937209,-1.0736,0.1369,0.0691,0.71,1.2,-2.98,
87602,1661545937210,-1.1938,0.0997,0.1389,2.4,-10.56,-4.81,
87603,1661545937210,-1.1518,-0.0878,-0.176,2.19,-23.17,-9.56,
87604,1661545937211,-1.0551,0.0289,-0.1784,-3.98,-16.73,-9.46,
87605,1661545937211,-1.1176,0.0621,0.1594,-1.49,-1.93,-4.72,
87606,1661545937212,-1.1552,-0.1595,0.1428,0.1,-0.66,-6.35,
87607,1661545937212,-1.0751,-0.139,0.1297,-2.1,-5.15,-5.63,
87608,1661545937212,-1.1723,-0.0721,0.2776,-0.1,-2.69,-4.63,
87609,1661545937213,-1.2074,-0.1664,0.2615,1.7,-1.76,-4.08,
87610,1661545937213,-1.1952,-0.4354,0.1843,-2.7,7.79,-3.8,
87611,1661545937214,-1.1571,-0.3392,0.2893,-9.49,12.54,-4.26,
87612,1661545937214,-1.2699,-0.3583,0.0701,-11.3,0.52,-0.16,
87613,1661545937215,-1.1435,-0.4584,0.1179,-7.99,-3.04,1.66,
87614,1661545937215,-1.2162,-0.3046,0.3924,-7.96,-1.5,-0.71,
87615,1661545937216,-1.0546,-0.2513,0.2073,-7.09,2.54,3.22,
87616,1661545937216,-1.2206,-0.3837,-0.0002,-13.0,8.8,5.86,
87617,1661545937218,-1.1586,-0.1429,0.4895,-12.89,17.51,4.68,
87618,1661545937218,-1.1596,-0.0126,0.3421,-13.18,10.51,2.3,
87619,1661545937218,-1.0263,0.1588,0.0134,-9.21,7.37,3.95,
87620,1661545937219,-1.0961,0.0597,0.115,-6.28,8.14,6.95,
87621,1661545937219,-1.0282,0.0153,0.3596,-5.7,15.65,12.52,
87622,1661545937220,-0.9775,0.3942,0.1209,-5.69,5.69,8.69,
87623,1661545937220,-0.7602,0.4577,-0.4353,-4.89,2.64,5.14,
87624,1661545937221,-0.8363,0.3737,-0.0617,-4.31,5.09,6.31,
87625,1661545937221,-0.9281,0.3956,0.0413,-1.99,2.04,6.04,
87626,1661545937222,-0.8915,0.3517,-0.2849,-0.5,-4.81,0.85,
87627,1661545937222,-0.8715,0.4601,-0.0388,-0.09,1.29,0.3,
87628,1661545937222,-0.8363,0.5294,0.1555,-1.29,2.38,-5.45,
87629,1661545937223,-0.7978,0.1334,-0.2068,2.4,0.35,3.03,
87630,1661545937223,-0.8544,0.174,-0.1101,4.92,4.93,0.48,
87631,1661545937224,-0.9565,0.3551,0.2517,3.9,6.44,2.03,
87632,1661545937224,-0.9726,0.1842,-0.0285,3.41,0.62,6.86,
87633,1661545937225,-0.9008,0.1676,-0.0832,2.69,0.09,3.86,
87634,1661545937225,-0.8349,0.2487,0.1453,0.1,6.94,7.69,
87635,1661545937226,-0.8608,0.1427,-0.112,2.6,-3.71,5.67,
87636,1661545937226,-0.8905,0.1491,-0.2322,6.9,-7.34,7.23,
87637,1661545937226,-1.0302,0.1461,0.0862,7.22,-4.96,9.24,
87638,1661545937226,-0.8251,0.2262,0.2009,6.7,-5.65,9.41,
87639,1661545937227,-0.8827,0.3141,-0.1306,3.61,-7.1,9.15,
87640,1661545937228,-0.85,0.3932,0.0174,10.09,4.83,7.32,
87641,1661545937228,-0.6903,0.3038,-0.0217,8.27,-1.35,8.79,
87642,1661545937229,-0.8422,0.4318,0.2737,3.19,5.84,0.21,
87643,1661545937229,-0.8417,0.5748,-0.2517,9.1,-7.01,-2.8,
87644,1661545937229,-0.558,0.1876,-0.449,14.5,3.05,1.93,
87645,1661545937230,-0.8241,0.4376,-0.0935,16.19,11.43,-7.08,
87646,1661545937230,-0.9687,0.6417,0.0198,13.69,8.63,-2.89,
87647,1661545937230,-0.6889,0.1857,-0.8786,9.69,-9.46,-3.44,
87648,1661545937230,-0.9374,0.2233,-0.0071,5.82,-8.09,-3.35,
87649,1661545937231,-0.9399,0.237,0.1507,8.7,-19.87,3.22,
87650,1661545937231,-0.9154,0.2018,-0.5769,13.62,-24.84,-5.54,
87651,1661545937232,-1.0439,0.2262,-0.1199,14.29,-3.04,-5.08,
87652,1661545937232,-1.1962,-0.2147,0.6619,8.43,1.8,-9.19,
87653,1661545937234,-1.0312,-0.2201,0.0598,5.6,-3.54,-4.63,
87654,1661545937234,-1.0756,-0.1214,0.0667,5.6,-4.64,-7.27,
87655,1661545937234,-1.1879,-0.3959,0.3596,4.7,-10.64,-5.08,
87656,1661545937235,-1.1366,-0.3734,0.1814,2.98,-13.52,-0.06,
87657,1661545937235,-1.2377,-0.2606,0.1541,1.91,0.87,-4.17,
87658,1661545937235,-1.1728,-0.2884,-0.0158,-0.99,-1.67,-4.08,
87659,1661545937236,-1.1117,-0.4623,0.0388,-3.18,-6.82,-4.99,
87660,1661545937237,-1.0429,-0.2572,0.2302,-1.92,-11.57,-1.9,
87661,1661545937237,-0.9833,-0.1844,-0.1184,-1.38,-8.35,-4.08,
87662,1661545937237,-1.1776,-0.2879,0.3054,-3.52,5.17,-1.35,
87663,1661545937237,-1.079,-0.2054,0.2693,-7.4,4.16,-4.26,
87664,1661545937239,-1.144,-0.0448,0.0808,-8.69,8.39,-1.62,
87665,1661545937239,-1.1166,-0.0023,0.1033,-2.89,9.73,-1.16,
87666,1661545937240,-1.1889,-0.2792,0.0828,-3.2,7.96,-0.8,
87667,1661545937240,-1.0536,0.006,0.1409,-9.0,7.46,0.67,
87668,1661545937240,-1.1645,0.256,0.0286,-8.49,5.51,-7.18,
87669,1661545937240,-1.1396,0.0187,-0.1545,-3.69,-4.12,0.03,
87670,1661545937240,-1.1752,-0.3172,0.0984,-8.4,2.8,-0.89,
87671,1661545937241,-1.1181,0.193,0.426,-9.78,3.25,2.21,
87672,1661545937241,-1.1576,0.0704,-0.1155,-6.42,-4.55,2.39,
87673,1661545937246,-1.1347,-0.0516,0.2937,-4.39,7.55,3.86,
87674,1661545937246,-1.1176,-0.0272,0.5467,-9.0,7.2,0.3,
87675,1661545937246,-1.0634,-0.0248,0.1887,-7.4,-1.01,4.86,
87676,1661545937246,-1.1249,-0.0648,0.0515,-5.9,2.13,5.76,
87677,1661545937246,-1.1142,0.0045,0.4798,-8.49,13.79,6.41,
87678,1661545937246,-0.8671,0.1095,-0.0276,-11.59,5.34,1.48,
87679,1661545937246,-0.7841,0.1515,-0.2644,-10.39,2.99,2.12,
87680,1661545937246,-0.9999,0.0558,-0.0456,-3.7,4.41,2.3,
87681,1661545937246,-0.9198,-0.0419,0.1594,-1.2,5.93,2.21,
87682,1661545937246,-1.0277,0.2746,0.013,-1.48,-0.06,7.23,
87683,1661545937246,-0.8495,0.172,0.0012,-3.28,4.59,7.41,
87684,1661545937247,-0.7909,0.0739,-0.008,-3.7,4.67,4.04,
87685,1661545937247,-0.787,0.3576,0.1277,-3.18,12.63,8.33,
87686,1661545937247,-0.9516,0.4415,-0.0666,2.42,6.45,9.59,
87687,1661545937248,-0.893,0.0543,-0.0281,10.7,10.49,6.5,
87688,1661545937248,-0.9442,0.2116,0.1585,7.6,13.45,6.22,
87689,1661545937249,-0.8544,0.4572,0.1609,5.19,14.65,8.05,
87690,1661545937249,-0.6581,0.7267,-0.4153,-1.02,3.14,5.14,
87691,1661545937250,-0.7997,0.3527,-0.3542,0.08,-2.28,-1.16,
87692,1661545937250,-0.8197,0.1891,-0.0764,6.0,-4.64,5.14,
87693,1661545937251,-0.9106,0.5812,0.0066,8.79,-12.26,0.12,
87694,1661545937251,-0.786,0.7955,-0.2375,13.17,-12.33,5.14,
87695,1661545937251,-0.8681,0.3073,-0.0344,11.19,-7.6,2.67,
87696,1661545937252,-0.8393,0.4772,0.2,7.5,-1.68,-2.43,
87697,1661545937252,-0.8232,0.5231,-0.0666,4.2,-3.97,-1.16,
87698,1661545937253,-0.7934,0.4205,-0.2331,11.3,-3.38,-8.37,
87699,1661545937253,-0.7963,0.2116,-0.0007,14.58,2.97,-3.53,
87700,1661545937254,-0.8861,0.0914,0.1155,11.91,2.48,-5.08,
87701,1661545937254,-0.8036,0.2409,-0.3469,7.41,-9.36,-7.18,
87702,1661545937255,-0.9867,-0.076,-0.1604,8.31,-8.95,0.21,
87703,1661545937255,-1.0741,-0.1688,0.0647,8.2,-1.01,-3.35,
87704,1661545937256,-0.976,-0.0707,-0.1174,8.27,1.45,-1.53,
87705,1661545937256,-0.9057,-0.1327,-0.114,9.31,2.39,-2.8,
87706,1661545937256,-0.9399,-0.058,0.3421,6.63,-9.28,-1.62,
87707,1661545937258,-1.1234,-0.2425,0.1048,0.72,-14.61,-3.16,
87708,1661545937258,-1.0072,-0.1073,-0.0686,2.4,-11.92,-2.43,
87709,1661545937258,-1.1025,-0.0526,0.4129,3.18,14.81,-4.44,
87710,1661545937258,-1.123,-0.1205,0.3216,3.61,13.97,-1.44,
87711,1661545937259,-1.0732,-0.0951,-0.2839,-0.5,0.77,-0.52,
87712,1661545937259,-1.0317,0.0407,-0.0334,0.11,-5.39,-0.8,
87713,1661545937260,-1.1742,0.0421,0.1975,2.9,-17.08,-1.35,
87714,1661545937260,-1.0776,-0.0101,-0.1985,0.0,-19.87,-2.43,
87715,1661545937262,-1.0502,0.0285,-0.0574,-4.59,-9.19,-0.34,
87716,1661545937262,-1.0985,0.0724,0.157,-4.19,-2.87,-1.44,
87717,1661545937262,-1.1449,-0.1166,0.1814,-0.19,-3.88,-2.26,
87718,1661545937262,-1.0824,-0.1107,0.0725,0.8,-5.65,-1.16,
87719,1661545937263,-1.1117,-0.0389,0.1819,-2.3,-1.59,-3.71,
87720,1661545937263,-1.1513,-0.2777,0.1101,-3.4,0.27,1.48,
87721,1661545937264,-1.1586,-0.4613,0.2176,-3.9,7.87,-3.25,
87722,1661545937264,-1.1776,-0.3695,0.2532,-4.5,10.66,1.22,
87723,1661545937264,-1.2626,-0.3832,0.0325,-9.99,0.27,0.39,
87724,1661545937265,-1.1835,-0.4803,0.1223,-9.67,-4.89,0.85,
87725,1661545937265,-1.2777,-0.3978,0.4436,-10.1,-1.35,4.59,
87726,1661545937266,-1.0478,-0.3705,0.0325,-8.4,0.85,6.13,
87727,1661545937266,-1.2275,-0.3153,0.2083,-14.19,7.2,6.13,
87728,1661545937267,-1.1859,-0.1503,0.4451,-15.7,9.73,7.23,
87729,1661545937267,-1.2162,-0.0814,0.4529,-14.58,9.0,9.24,
87730,1661545937269,-1.0522,0.1373,0.1101,-11.39,6.19,4.04,
87731,1661545937269,-1.0609,0.0949,-0.0295,-8.59,3.92,4.5,
87732,1661545937269,-1.0185,0.1764,0.4343,-8.89,16.08,6.5,
87733,1661545937269,-1.0468,0.3771,0.3089,-7.4,7.7,8.24,
87734,1661545937269,-0.8246,0.5031,-0.3493,-7.9,5.26,7.05,
87735,1661545937270,-0.8114,0.4127,-0.1199,-6.6,4.16,3.58,
87736,1661545937270,-0.9242,0.442,0.0335,-5.99,2.38,8.51,
87737,1661545937271,-0.8876,0.3624,-0.1301,-1.0,-7.77,7.87,
87738,1661545937271,-0.8642,0.4884,-0.0818,-1.99,1.2,7.14,
87739,1661545937271,-0.8232,0.5885,0.1463,0.9,5.09,2.03,
87740,1661545937272,-0.8417,0.1745,-0.1037,1.9,5.09,3.03,
87741,1661545937272,-0.8808,0.192,-0.0237,1.1,10.83,-1.35,
87742,1661545937274,-0.9648,0.3893,0.2332,5.7,10.42,-1.9,
87743,1661545937274,-0.9257,0.1857,-0.1116,5.48,3.14,2.3,
87744,1661545937274,-0.8412,0.1828,-0.0422,6.58,2.54,8.88,
87745,1661545937274,-0.8017,0.2506,0.1155,2.08,6.44,4.68,
87746,1661545937275,-0.8573,0.1476,-0.1614,3.61,-4.47,10.14,
87747,1661545937275,-0.8769,0.1369,-0.3327,4.51,-8.44,12.8,
87748,1661545937275,-1.0712,0.1754,0.2415,4.29,-6.93,7.14,
87749,1661545937276,-0.9003,0.2223,0.2429,3.39,-8.44,8.97,
87750,1661545937276,-0.8949,0.2755,-0.1526,6.29,-2.69,8.14,
87751,1661545937277,-0.9276,0.4035,0.0593,8.08,4.57,1.84,
87752,1661545937277,-0.7587,0.319,0.1018,6.9,-6.0,4.13,
87753,1661545937278,-1.0292,0.3776,0.2381,-0.8,-2.44,2.94,
87754,1661545937278,-0.9438,0.6588,0.0154,6.5,-19.11,1.22,
87755,1661545937278,-0.7904,0.1149,-0.5622,7.02,-17.31,1.84,
87756,1661545937280,-0.8857,0.5709,-0.0183,15.29,2.04,0.39,
87757,1661545937280,-0.8412,0.6295,-0.2908,13.1,15.65,1.22,
87758,1661545937281,-0.8246,0.3512,-0.7693,10.3,5.78,0.12,
87759,1661545937281,-0.9672,0.1906,-0.3762,7.39,4.24,2.67,
87760,1661545937282,-0.9203,0.2311,0.2215,8.5,-13.19,-2.89,
87761,1661545937282,-0.894,0.236,-0.4538,4.6,-33.15,-2.89,
87762,1661545937282,-1.0487,0.0861,0.2092,13.31,-23.75,-3.25,
87763,1661545937282,-1.1923,-0.1986,0.531,11.8,1.45,-6.0,
87764,1661545937283,-1.0146,-0.2504,0.1663,5.01,8.31,-4.26,
87765,1661545937283,-1.0409,-0.1097,-0.0046,3.01,8.65,-4.08,
87766,1661545937284,-1.2016,-0.3514,0.3352,2.6,-0.25,-6.27,
87767,1661545937284,-1.1005,-0.4081,0.1453,1.82,-15.87,-0.89,
87768,1661545937285,-1.2616,-0.3041,0.0667,-4.3,-8.27,-2.26,
87769,1661545937285,-1.1938,-0.3114,-0.0207,-1.89,-2.77,-1.8,
87770,1661545937285,-1.1332,-0.4686,0.0584,-4.19,-4.05,-0.89,
87771,1661545937288,-1.0741,-0.3246,0.2703,-5.09,-9.37,-1.07,
87772,1661545937288,-0.9784,-0.1791,-0.1008,-4.41,-16.22,-4.17,
87773,1661545937288,-1.1972,-0.349,0.3611,-3.2,1.71,0.58,
87774,1661545937288,-1.1044,-0.2298,0.4251,-6.16,6.21,-3.35,
87775,1661545937288,-1.0815,-0.036,0.0725,-9.7,11.09,-5.73,
87776,1661545937288,-1.1757,-0.1576,0.1848,-5.6,10.83,-2.8,
87777,1661545937289,-1.2177,-0.2948,0.1736,-3.9,9.49,-3.71,
87778,1661545937289,-1.0097,-0.0931,0.1243,-7.0,8.39,0.85,
87779,1661545937289,-1.1606,0.2829,-0.0598,-6.69,4.5,-1.8,
87780,1661545937290,-1.1298,-0.2289,-0.2019,-4.1,-3.38,6.5,
87781,1661545937290,-1.1835,-0.2181,0.3303,-7.7,6.19,0.03,
87782,1661545937291,-1.1176,0.0983,0.365,-11.99,4.16,2.85,
87783,1661545937292,-1.1635,0.1598,-0.1511,-7.29,-2.19,-0.8,
87784,1661545937292,-1.1488,-0.037,0.2425,-9.58,3.75,-2.26,
87785,1661545937292,-1.1786,-0.0438,0.5642,-9.99,4.57,1.48,
87786,1661545937293,-1.1073,-0.0433,0.0481,-8.3,1.61,2.12,
87787,1661545937293,-1.1337,-0.0531,0.0017,-5.79,5.6,5.86,
87788,1661545937295,-1.1195,-0.0145,0.4553,-9.29,12.95,4.86,
87789,1661545937295,-0.9091,0.0841,0.0779,-12.89,1.54,6.95,
87790,1661545937295,-0.8813,0.1901,-0.2942,-12.1,0.35,3.4,
87791,1661545937295,-0.9848,0.0275,0.0423,-4.3,2.47,5.14,
87792,1661545937295,-0.9394,-0.0448,0.1287,-2.89,2.64,8.24,
87793,1661545937296,-0.9794,0.2433,0.0266,-4.31,0.68,7.69,
87794,1661545937296,-0.8554,0.1994,-0.0583,-4.5,5.17,6.13,
87795,1661545937297,-0.8105,0.1032,0.1262,-5.29,11.09,6.22,
87796,1661545937297,-0.8827,0.2965,0.1355,-2.01,16.67,7.5,
87797,1661545937298,-0.892,0.5265,-0.0207,1.39,10.66,5.14,
87798,1661545937298,-0.9394,0.1203,-0.0295,2.02,6.54,6.95,
87799,1661545937298,-0.9335,0.2374,0.1834,5.21,4.85,11.15,
87800,1661545937299,-0.8886,0.3468,0.1453,-1.0,10.33,8.69,
87801,1661545937299,-0.7328,0.7662,-0.3635,0.9,4.24,2.39,
87802,1661545937300,-0.7875,0.4586,-0.5032,0.39,-0.42,8.79,
87803,1661545937300,-0.8359,0.1779,-0.0793,6.2,-1.68,10.78,
87804,1661545937302,-0.9154,0.735,-0.1565,6.09,-7.94,2.67,
87805,1661545937302,-0.8236,0.8126,-0.2463,10.09,-14.36,1.13,
87806,1661545937303,-0.8979,0.3458,-0.0901,8.29,-13.78,-1.99,
87807,1661545937303,-0.8617,0.4537,0.2215,7.28,-10.3,1.03,
87808,1661545937303,-0.8549,0.4938,-0.0129,7.1,-6.17,-0.25,
87809,1661545937304,-0.8183,0.4079,-0.1277,10.9,-1.25,-7.27,
87810,1661545937304,-0.8529,0.1476,0.2337,15.19,6.77,-5.08,
87811,1661545937305,-0.8876,0.0631,0.1795,9.91,2.9,-6.63,
87812,1661545937305,-0.8183,0.2467,-0.2844,5.99,-9.13,-10.46,
87813,1661545937306,-0.9496,-0.0145,-0.197,6.79,-8.79,-5.45,
87814,1661545937306,-1.0727,-0.0843,0.0476,8.0,-3.88,-2.52,
87815,1661545937308,-0.996,-0.0653,-0.1604,5.6,-5.57,-0.43,
87816,1661545937308,-1.0429,-0.1117,0.0393,2.51,-6.41,1.03,
87817,1661545937308,-0.8949,-0.0492,0.3118,2.0,-9.2,-3.8,
87818,1661545937308,-1.1205,-0.2015,0.2571,0.98,-12.26,-7.72,
87819,1661545937308,-0.9687,-0.0838,-0.0886,6.9,2.47,-2.8,
87820,1661545937309,-1.1405,-0.0736,0.3938,1.9,17.61,-8.55,
87821,1661545937309,-1.1791,-0.2142,0.2044,1.5,14.31,-4.44,
87822,1661545937310,-1.0732,-0.181,-0.2204,-2.1,0.94,-9.92,
87823,1661545937310,-1.0141,0.0587,-0.1765,-0.1,-7.1,-7.63,
87824,1661545937311,-1.2231,0.0695,0.2014,0.8,-14.19,-7.36,
87825,1661545937311,-1.101,-0.0829,-0.239,-0.7,-16.15,-6.0,
87826,1661545937312,-1.0771,0.0211,-0.1555,-7.7,-3.45,-6.0,
87827,1661545937312,-1.1181,0.0787,0.26,-7.38,-7.25,-6.99,
87828,1661545937313,-1.163,-0.1473,0.1502,-3.29,-13.35,-5.27,
87829,1661545937313,-1.1269,-0.0633,0.198,-2.39,-8.7,-6.09,
87830,1661545937314,-1.1108,-0.0423,0.2381,-5.4,6.36,-2.61,
87831,1661545937314,-1.1449,-0.2298,0.1624,-5.78,6.28,-5.63,
87832,1661545937314,-1.1811,-0.4183,0.2566,-6.48,12.88,-5.63,
87833,1661545937314,-1.2138,-0.3583,0.242,-9.39,3.31,-3.53,
87834,1661545937315,-1.1728,-0.4232,-0.011,-9.21,-4.98,-5.08,
87835,1661545937315,-1.2109,-0.4071,0.322,-10.19,6.1,-1.99,
87836,1661545937316,-1.1034,-0.3236,0.2044,-13.0,10.33,-2.35,
87837,1661545937316,-1.0033,-0.3299,-0.0686,-15.5,3.57,0.21,
87838,1661545937316,-1.2265,-0.3275,0.1453,-12.6,4.41,1.31,
87839,1661545937317,-1.122,-0.1537,0.4749,-8.49,1.87,1.22,
87840,1661545937317,-1.162,-0.0712,0.3196,-12.39,14.32,3.95,
87841,1661545937318,-0.9828,0.1554,0.055,-13.09,17.51,2.3,
87842,1661545937318,-1.0292,-0.016,0.1038,-12.4,16.0,4.77,
87843,1661545937319,-0.955,0.0895,0.3328,-10.19,15.24,2.94,
87844,1661545937319,-0.9667,0.4513,-0.0066,-8.49,0.77,2.58,
87845,1661545937320,-0.727,0.3761,-0.3635,-5.6,2.97,-0.98,
87846,1661545937320,-0.9115,0.4503,0.0149,-6.82,7.37,-1.53,
87847,1661545937320,-0.8808,0.3717,-0.1794,-5.29,2.47,-0.8,
87848,1661545937321,-0.8651,0.4308,-0.2087,-4.68,-2.93,0.85,
87849,1661545937321,-0.8617,0.6129,0.0647,-2.39,4.5,1.93,
87850,1661545937322,-0.8974,0.4679,0.0862,1.1,-1.35,5.95,
87851,1661545937322,-0.8505,0.2067,-0.1316,1.39,2.3,2.3,
87852,1661545937323,-0.9233,0.3795,0.2302,-0.19,6.53,5.95,
87853,1661545937323,-0.9521,0.341,0.2508,0.13,8.24,3.86,
87854,1661545937323,-0.9067,0.1837,-0.0935,3.19,2.8,2.03,
87855,1661545937324,-0.7973,0.255,0.074,-0.09,9.75,2.39,
87856,1661545937324,-0.8608,0.2125,0.1243,1.39,6.77,-0.8,
87857,1661545937325,-0.8134,0.1705,-0.2834,6.99,-4.64,3.58,
87858,1661545937325,-0.9457,0.1662,-0.0852,4.9,0.01,7.14,
87859,1661545937326,-0.9486,0.1994,0.2302,1.39,2.97,2.85,
87860,1661545937326,-0.7226,0.1871,0.011,1.7,-1.35,9.41,
87861,1661545937326,-0.8798,0.2833,-0.0798,0.89,-2.19,6.95,
87862,1661545937327,-0.8251,0.3112,0.1228,5.1,-2.28,8.69,
87863,1661545937327,-0.9643,0.3224,0.2044,8.7,-0.25,4.41,
87864,1661545937328,-0.7299,0.5221,0.2332,7.5,7.2,-1.71,
87865,1661545937328,-0.8612,0.4708,-0.1848,11.4,5.0,1.22,
87866,1661545937329,-0.5702,0.2272,-0.1628,11.91,24.04,1.84,
87867,1661545937329,-0.8222,0.5822,0.18,3.71,16.09,-0.8,
87868,1661545937331,-0.8539,0.63,-0.1335,1.59,0.01,-3.99,
87869,1661545937331,-0.7226,0.2179,-0.6809,6.08,-23.59,-6.0,
87870,1661545937331,-0.9628,0.1784,0.0271,7.89,-17.84,-9.56,
87871,1661545937332,-1.0072,0.2609,0.0061,11.8,-16.15,-11.55,
87872,1661545937332,-0.9482,0.2916,-0.4333,8.09,-2.78,-17.31,
87873,1661545937333,-1.1459,-0.1546,0.3635,6.52,5.69,-10.73,
87874,1661545937333,-1.037,-0.2137,0.2957,1.81,-1.68,-9.83,
87875,1661545937334,-1.0287,-0.0878,0.034,3.51,-16.13,-11.37,
87876,1661545937334,-1.1269,-0.1463,0.0486,6.79,0.68,-9.46,
87877,1661545937335,-1.1899,-0.4144,0.3509,1.5,7.29,-11.92,
87878,1661545937335,-1.1674,-0.3514,0.1702,-0.3,4.5,-7.63,
87879,1661545937336,-1.203,-0.2782,-0.0652,-8.6,-11.07,-7.63,
87880,1661545937336,-1.1127,-0.4579,-0.0476,-3.61,-16.99,-6.09,
87881,1661545937336,-1.1308,-0.4017,0.2698,-2.3,0.44,1.03,
87882,1661545937336,-1.0819,-0.1898,0.1204,-7.7,-6.5,-4.54,
87883,1661545937337,-1.141,-0.2435,-0.0969,-8.77,-2.93,-2.52,
87884,1661545937337,-1.2152,-0.2953,0.4759,-6.42,1.78,-3.99,
87885,1661545937337,-1.1596,-0.1131,0.1902,-8.66,-5.3,-1.8,
87886,1661545937338,-1.0453,-0.037,0.0481,-8.78,5.35,-1.16,
87887,1661545937338,-1.1991,-0.266,0.1502,-7.59,13.55,3.58,
87888,1661545937339,-1.121,-0.3456,0.1897,-9.59,17.68,-1.25,
87889,1661545937339,-1.1366,0.1471,0.0999,-11.97,-0.06,-4.35,
87890,1661545937340,-1.1855,0.1764,-0.1008,-6.1,-4.64,-0.71,
87891,1661545937340,-1.184,-0.2796,0.055,-6.01,2.71,1.84,
87892,1661545937340,-1.1332,0.0612,0.3289,-13.0,8.13,0.21,
87893,1661545937341,-1.121,0.1466,-0.1413,-16.49,-1.85,2.12,
87894,1661545937342,-1.1098,0.0499,-0.1223,-9.9,1.11,4.13,
87895,1661545937342,-1.1122,-0.0067,0.5051,-7.09,6.02,-1.07,
87896,1661545937342,-1.1298,0.007,0.3025,-7.4,3.4,4.22,
87897,1661545937343,-1.1274,-0.0179,0.0188,-6.79,2.22,2.85,
87898,1661545937343,-1.1171,-0.0126,0.3948,-9.59,14.05,0.21,
87899,1661545937344,-0.9975,-0.0267,0.3689,-12.58,14.49,2.12,
87900,1661545937344,-0.8061,0.151,-0.1809,-14.48,6.12,5.32,
87901,1661545937345,-0.9423,0.1315,-0.1174,-9.58,2.22,4.13,
87902,1661545937345,-0.9569,-0.0404,0.1634,-1.7,3.73,7.23,
87903,1661545937346,-0.9521,0.1911,0.0725,-5.92,3.64,4.59,
87904,1661545937346,-0.9921,0.3102,-0.031,-7.2,1.37,3.12,
87905,1661545937346,-0.8525,0.0827,0.0667,-5.79,7.03,5.86,
87906,1661545937347,-0.8866,0.2614,0.2127,-7.0,4.91,7.5,
87907,1661545937347,-0.7968,0.5216,0.0174,-2.36,5.02,3.95,
87908,1661545937347,-1.0194,0.4039,-0.0393,2.0,3.48,8.33,
87909,1661545937348,-0.9477,0.1798,0.1204,6.79,12.28,5.86,
87910,1661545937349,-0.9609,0.2575,0.1863,7.1,16.34,5.23,
87911,1661545937349,-0.7729,0.7164,-0.2043,-1.99,19.13,5.86,
87912,1661545937350,-0.6381,0.8322,-0.425,-1.08,7.81,5.49,
87913,1661545937350,-0.7377,0.255,-0.3742,-2.3,3.14,2.48,
87914,1661545937350,-0.8412,0.3922,-0.0178,2.31,-8.26,3.86,
87915,1661545937351,-0.8285,0.8214,-0.1877,7.18,-17.15,1.57,
87916,1661545937351,-0.8871,0.3761,-0.1863,11.8,-17.08,1.84,
87917,1661545937352,-0.8852,0.3761,-0.0105,6.61,-3.7,-2.7,
87918,1661545937352,-0.8319,0.466,0.176,3.12,4.25,0.58,
87919,1661545937353,-0.828,0.4816,-0.1614,3.82,2.39,-1.71,
87920,1661545937353,-0.8446,0.3449,0.0105,6.99,0.44,0.12,
87921,1661545937354,-0.8598,0.1969,0.2005,9.51,-3.19,4.13,
87922,1661545937354,-0.8852,0.1452,0.0047,6.69,-9.13,0.3,
87923,1661545937354,-0.7538,0.2145,-0.322,8.98,-10.39,-0.71,
87924,1661545937355,-1.0248,-0.1429,-0.0657,9.6,1.78,-1.9,
87925,1661545937355,-0.9633,-0.0282,-0.1545,2.61,0.29,-0.43,
87926,1661545937356,-1.0024,-0.0243,-0.2263,1.7,-8.79,-3.16,
87927,1661545937356,-1.0268,-0.1346,-0.01,6.9,-8.96,-1.9,
87928,1661545937357,-1.0087,-0.1293,0.2693,11.88,-0.75,1.57,
87929,1661545937357,-1.0663,-0.1966,0.0491,4.2,2.21,3.95,
87930,1661545937360,-0.9906,-0.0926,0.0042,-0.91,0.35,-2.89,
87931,1661545937360,-1.0859,-0.1146,0.5774,-5.49,8.07,0.12,
87932,1661545937360,-1.1484,-0.1713,0.3665,-1.51,-3.28,-2.61,
87933,1661545937360,-1.0502,-0.0751,-0.384,-1.99,-4.47,-5.36,
87934,1661545937360,-1.0424,0.1105,0.1424,-0.5,4.91,-6.63,
87935,1661545937360,-1.1122,0.0109,0.0984,0.0,-1.01,-4.17,
87936,1661545937360,-1.0317,-0.0878,-0.428,-4.99,-9.28,-2.17,
87937,1661545937361,-1.0912,0.0621,0.0169,-7.4,-12.09,-8.09,
87938,1661545937361,-1.1112,0.1276,0.2468,-7.2,-17.15,-7.63,
87939,1661545937362,-1.1527,-0.1078,0.073,-1.09,-13.6,-6.53,
87940,1661545937362,-1.1112,-0.015,0.116,-5.67,1.13,-7.45,
87941,1661545937363,-1.1625,-0.057,0.2942,-6.4,5.6,-7.91,
87942,1661545937363,-1.1488,-0.3197,0.1814,-4.28,1.8,-9.37,
87943,1661545937364,-1.2109,-0.3392,0.2869,-6.68,4.18,-4.72,
87944,1661545937364,-1.2245,-0.328,0.2786,-9.59,0.01,-6.81,
87945,1661545937366,-1.2133,-0.4335,0.0877,-11.79,1.2,-6.18,
87946,1661545937366,-1.2152,-0.4037,0.3494,-13.09,10.42,-2.89,
87947,1661545937366,-1.165,-0.327,0.2498,-12.2,6.36,-1.25,
87948,1661545937366,-1.0756,-0.3602,-0.0598,-13.09,-2.61,-1.16,
87949,1661545937366,-1.227,-0.2699,0.3318,-11.49,1.39,2.48,
87950,1661545937367,-1.1801,-0.161,0.3377,-13.0,5.84,5.32,
87951,1661545937367,-1.1405,0.0949,0.2864,-16.7,21.16,5.86,
87952,1661545937368,-0.9989,0.1964,0.2092,-13.68,11.87,3.95,
87953,1661545937368,-1.0341,-0.0082,0.0681,-12.49,9.32,3.12,
87954,1661545937369,-1.0014,0.2975,0.3499,-9.2,6.94,5.32,
87955,1661545937369,-0.9184,0.5075,-0.1882,-7.29,0.18,6.5,
87956,1661545937370,-0.7768,0.421,-0.1369,-5.4,10.16,1.22,
87957,1661545937370,-0.8901,0.4689,0.0301,-6.69,11.68,2.67,
87958,1661545937371,-0.8593,0.4054,-0.1858,-7.0,4.91,6.5,
87959,1661545937371,-0.8544,0.3996,-0.2263,-5.38,-0.57,6.41,
87960,1661545937371,-0.8339,0.6847,0.1541,-4.01,1.2,6.86,
87961,1661545937372,-0.8564,0.5187,0.0344,-0.3,-4.72,4.77,
87962,1661545937372,-0.8432,0.2091,-0.1897,-0.1,1.11,2.03,
87963,1661545937373,-0.9369,0.3322,0.2346,1.0,8.3,5.14,
87964,1661545937373,-0.9159,0.2047,0.0735,4.7,10.83,-0.98,
87965,1661545937375,-0.9276,0.1676,-0.1091,0.8,4.67,-2.35,
87966,1661545937375,-0.8388,0.2252,0.0427,0.2,11.68,4.86,
87967,1661545937375,-0.9154,0.1071,0.0945,0.9,5.34,2.85,
87968,1661545937376,-0.8329,0.1178,-0.323,2.6,-1.42,2.58,
87969,1661545937376,-0.9076,0.1515,-0.1833,2.0,-1.01,7.6,
87970,1661545937377,-1.0292,0.1891,0.2161,1.61,-3.71,7.14,
87971,1661545937377,-0.831,0.2013,-0.0574,0.8,-9.8,4.31,
87972,1661545937377,-0.911,0.3273,0.0291,2.89,-1.59,4.77,
87973,1661545937377,-0.849,0.3439,0.0603,3.62,-2.51,1.03,
87974,1661545937377,-0.7797,0.3053,0.0017,3.61,8.98,-1.07,
87975,1661545937379,-0.5985,0.6847,0.2527,6.79,16.25,0.03,
87976,1661545937379,-0.9106,0.3004,-0.3191,8.4,8.8,0.12,
87977,1661545937379,-0.6767,0.1549,-0.383,8.52,18.98,-2.26,
87978,1661545937379,-0.8041,0.5397,0.0979,5.6,9.4,2.94,
87979,1661545937380,-0.7719,0.5338,-0.281,2.31,-9.52,3.49,
87980,1661545937380,-0.7831,0.1906,-0.6843,8.58,-28.66,1.4,
87981,1661545937381,-0.9399,0.2326,0.1204,7.82,-15.87,0.48,
87982,1661545937381,-0.9613,0.214,0.1692,10.0,-11.33,0.67,
87983,1661545937381,-0.9242,0.2545,-0.385,8.2,-2.19,-5.18,
87984,1661545937383,-1.0976,-0.0804,0.1707,7.8,3.98,-0.34,
87985,1661545937383,-1.08,-0.2152,0.4168,0.94,2.56,-5.08,
87986,1661545937383,-1.036,-0.1351,0.2547,-0.5,-12.42,-7.82,
87987,1661545937384,-1.0795,-0.1283,0.0398,5.7,-3.79,-2.7,
87988,1661545937384,-1.163,-0.3817,0.2615,3.61,1.11,-9.1,
87989,1661545937384,-1.1464,-0.3807,0.2332,3.12,6.04,-1.35,
87990,1661545937385,-1.226,-0.2933,0.0408,-7.4,-5.07,-7.18,
87991,1661545937386,-1.1371,-0.4066,-0.0886,-8.3,-14.79,-3.16,
87992,1661545937386,-1.1811,-0.4335,0.2327,-5.79,-7.86,-1.8,
87993,1661545937386,-1.0824,-0.2171,0.1843,-9.79,-9.89,-3.89,
87994,1661545937387,-1.0971,-0.1854,-0.0935,-7.98,-2.09,-0.71,
87995,1661545937387,-1.1982,-0.2738,0.3948,-5.58,4.59,0.39,
87996,1661545937388,-1.1459,-0.1449,0.2903,-11.21,-0.92,0.58,
87997,1661545937388,-1.0692,-0.0126,0.1243,-12.1,3.05,-4.17,
87998,1661545937389,-1.1855,-0.2015,0.176,-7.98,8.4,0.85,
87999,1661545937389,-1.017,-0.2684,0.1829,-5.9,15.58,-0.8,
88000,1661545937389,-1.0942,0.0646,0.1492,-7.76,9.91,0.48,
88001,1661545937390,-1.1669,0.2277,-0.0945,-9.0,2.3,0.21,
88002,1661545937390,-1.1542,-0.2284,-0.0837,-7.27,0.53,0.3,
88003,1661545937391,-1.1557,-0.0521,0.284,-12.42,8.05,1.4,
88004,1661545937391,-1.102,0.1154,-0.1033,-13.99,-3.88,-0.25,
88005,1661545937392,-1.1288,0.0568,-0.1584,-10.1,-1.51,2.94,
88006,1661545937392,-1.1137,0.0016,0.3772,-6.6,5.67,2.39,
88007,1661545937392,-1.1474,0.0104,0.3509,-8.69,4.5,1.31,
88008,1661545937393,-1.1342,0.0192,0.1067,-13.32,2.64,2.3,
88009,1661545937393,-1.12,0.0065,0.344,-10.8,6.36,5.05,
88010,1661545937394,-1.0214,-0.0492,0.3709,-10.8,9.56,5.4,
88011,1661545937394,-0.8368,0.1422,-0.0803,-10.49,8.98,6.77,
88012,1661545937395,-0.9438,0.2037,-0.1037,-8.1,9.06,2.94,
88013,1661545937395,-0.9433,-0.0018,0.0637,-5.9,1.87,7.41,
88014,1661545937396,-0.9262,0.1681,0.0598,-6.5,3.64,4.68,
88015,1661545937396,-0.9579,0.3019,-0.0495,-6.42,2.54,4.96,
88016,1661545937397,-0.8363,0.1188,-0.0461,-6.21,6.86,2.03,
88017,1661545937397,-0.8437,0.2135,0.1897,-5.41,8.98,3.49,
88018,1661545937397,-0.6913,0.5099,0.0183,-5.79,3.48,8.6,
88019,1661545937398,-0.932,0.4274,-0.0412,-2.8,2.64,1.84,
88020,1661545937398,-0.9272,0.1808,0.0662,3.0,4.41,6.86,
88021,1661545937399,-0.9765,0.2018,0.1795,4.4,11.18,9.41,
88022,1661545937399,-0.7651,0.6193,-0.011,-1.2,17.86,4.86,
88023,1661545937400,-0.7455,0.8278,-0.2903,0.8,8.8,1.48,
88024,1661545937400,-0.7514,0.3185,-0.4382,2.51,9.06,4.41,
88025,1661545937401,-0.7987,0.2667,-0.0339,4.29,4.67,1.57,
88026,1661545937401,-0.8564,0.7868,-0.1379,3.7,-8.79,-0.8,
88027,1661545937401,-0.8515,0.7111,-0.2712,6.5,-21.14,1.75,
88028,1661545937402,-0.8822,0.3912,-0.0632,5.18,-17.58,1.57,
88029,1661545937403,-0.8183,0.4459,0.1658,3.9,-6.34,-0.16,
88030,1661545937403,-0.81,0.4537,-0.1374,6.7,-1.85,-1.25,
88031,1661545937403,-0.8485,0.4044,-0.0417,10.7,2.04,-2.61,
88032,1661545937404,-0.8901,0.2858,0.1863,8.58,3.64,-3.35,
88033,1661545937404,-0.9003,0.109,0.1409,5.7,-3.45,1.93,
88034,1661545937404,-0.7675,0.2384,-0.2868,4.4,-8.44,2.85,
88035,1661545937405,-0.9643,-0.0946,-0.0852,7.69,-3.28,0.21,
88036,1661545937405,-0.9789,-0.0316,-0.0783,6.41,0.45,-1.62,
88037,1661545937407,-0.9814,-0.015,-0.1736,4.61,-6.15,-3.44,
88038,1661545937407,-0.9906,-0.1244,-0.0798,7.39,-7.51,4.04,
88039,1661545937407,-0.934,-0.1434,0.2195,10.09,-3.71,4.13,
88040,1661545937407,-1.0966,-0.2528,0.0984,4.61,-1.74,6.86,
88041,1661545937408,-0.9394,-0.0951,-0.0544,0.08,1.02,5.4,
88042,1661545937408,-1.1562,-0.0795,0.1223,-3.49,10.94,-2.26,
88043,1661545937409,-1.1386,-0.1888,0.3928,-4.5,9.9,1.13,
88044,1661545937409,-1.019,-0.1561,-0.3171,-3.0,-4.31,-1.44,
88045,1661545937409,-1.0063,0.0924,0.0291,-2.39,1.45,0.58,
88046,1661545937410,-1.1527,0.0529,0.1726,-2.3,-4.05,-2.17,
88047,1661545937410,-1.0395,-0.1263,-0.364,-3.0,-10.06,-0.89,
88048,1661545937412,-1.0761,-0.0375,-0.3274,-10.19,-10.39,-2.98,
88049,1661545937412,-1.1386,0.1456,0.1756,-7.79,-11.49,-0.8,
88050,1661545937413,-1.1635,-0.077,0.0462,-5.58,-9.45,-2.61,
88051,1661545937413,-1.1342,-0.0243,0.1424,-5.58,-1.58,-1.99,
88052,1661545937414,-1.141,-0.0438,0.2786,-6.98,2.39,-3.16,
88053,1661545937414,-1.1093,-0.2733,0.1277,-5.09,2.71,-2.35,
88054,1661545937414,-1.1772,-0.3212,0.2884,-6.39,8.07,-0.61,
88055,1661545937415,-1.2436,-0.3807,0.1594,-10.81,2.88,-2.8,
88056,1661545937415,-1.2035,-0.4115,0.0359,-14.58,-1.16,0.76,
88057,1661545937415,-1.2074,-0.4173,0.2556,-13.5,7.12,0.12,
88058,1661545937416,-1.2318,-0.3231,0.3269,-11.78,8.24,1.75,
88059,1661545937416,-1.039,-0.3412,-0.1101,-14.48,2.48,5.95,
88060,1661545937417,-1.204,-0.3065,0.2732,-16.4,2.38,7.87,
88061,1661545937417,-1.1132,-0.1869,0.3782,-14.29,2.71,7.69,
88062,1661545937417,-1.2123,-0.1097,0.2913,-16.78,18.72,6.41,
88063,1661545937419,-1.0277,0.1588,0.1795,-14.19,16.42,7.69,
88064,1661545937419,-1.081,0.0192,0.0545,-13.79,12.62,6.41,
88065,1661545937420,-0.9975,0.2316,0.3601,-11.38,9.41,5.67,
88066,1661545937420,-0.974,0.444,-0.1428,-11.78,-4.2,3.67,
88067,1661545937420,-0.767,0.4035,-0.1892,-4.31,7.87,2.3,
88068,1661545937420,-0.871,0.4992,-0.0144,-4.89,10.16,4.22,
88069,1661545937420,-0.9145,0.4625,-0.114,-8.31,4.33,1.66,
88070,1661545937421,-0.8881,0.3605,-0.281,-9.2,-2.87,3.67,
88071,1661545937421,-0.8686,0.6754,0.1585,-4.68,-3.96,2.3,
88072,1661545937422,-0.8974,0.3805,-0.0564,-0.7,-4.72,2.85,
88073,1661545937422,-0.8349,0.2477,-0.1589,0.4,1.11,1.57,
88074,1661545937424,-0.8852,0.3004,0.197,3.09,9.66,3.95,
88075,1661545937424,-0.915,0.2443,0.1575,4.0,12.02,4.59,
88076,1661545937424,-0.8842,0.2306,-0.091,1.71,3.66,3.86,
88077,1661545937424,-0.8695,0.2516,0.0569,-1.2,12.52,-0.06,
88078,1661545937425,-0.9096,0.1193,0.1321,-1.8,4.16,6.68,
88079,1661545937425,-0.8217,0.1041,-0.3323,-1.52,-3.88,4.68,
88080,1661545937425,-1.0448,0.1647,0.0344,3.39,-1.94,7.05,
88081,1661545937426,-1.0595,0.1749,0.2454,3.5,-1.01,8.42,
88082,1661545937426,-0.7436,0.1491,-0.0559,-0.77,-5.73,5.14,
88083,1661545937427,-0.894,0.297,-0.0554,0.49,-1.35,5.49,
88084,1661545937427,-0.8393,0.2882,0.0423,3.12,-3.53,8.33,
88085,1661545937428,-0.7538,0.2291,-0.0354,3.01,5.78,9.41,
88086,1661545937428,-0.6425,0.568,0.1189,3.1,11.59,0.3,
88087,1661545937429,-0.9384,0.401,-0.2068,7.69,7.87,1.4,
88088,1661545937429,-0.6825,0.32,-0.1526,11.1,16.0,-3.35,
88089,1661545937429,-0.8617,0.5504,0.0935,5.89,12.28,-5.36,
88090,1661545937430,-0.8373,0.6071,-0.1208,-0.91,-7.27,-4.35,
88091,1661545937430,-0.7445,0.2379,-0.6233,5.31,-22.65,-8.09,
88092,1661545937431,-0.9325,0.1652,0.0217,7.3,-1.25,-5.91,
88093,1661545937431,-1.0116,0.3087,-0.0305,7.19,-5.83,-10.91,
88094,1661545937432,-0.9721,0.3317,-0.3718,8.0,-0.32,-10.1,
88095,1661545937432,-1.1098,-0.2069,0.3045,4.4,-6.58,-9.65,
88096,1661545937433,-1.1166,-0.2513,0.3875,0.19,-10.06,-6.99,
88097,1661545937433,-1.0736,-0.0633,0.0217,3.19,-10.23,-11.19,
88098,1661545937434,-1.1835,-0.1839,0.0242,4.9,4.57,-3.44,
88099,1661545937434,-1.1532,-0.3988,0.3391,0.1,1.2,-9.28,
88100,1661545937435,-1.2182,-0.3656,0.1609,-6.59,-3.86,-8.37,
88101,1661545937435,-1.161,-0.2391,-0.0749,-8.89,-11.83,-5.18,
88102,1661545937436,-1.1752,-0.4105,0.1043,-4.59,-11.55,-9.1,
88103,1661545937437,-1.2401,-0.4935,0.2678,-8.08,-0.74,-2.89,
88104,1661545937437,-1.0151,-0.2313,0.0027,-9.97,-4.7,-3.25,
88105,1661545937437,-1.1796,-0.263,0.0144,-11.09,1.78,-2.35,
88106,1661545937437,-1.1523,-0.2616,0.4553,-11.21,-2.95,-4.99,
88107,1661545937438,-1.2074,-0.099,0.18,-10.6,-1.35,-1.9,
88108,1661545937438,-1.1068,-0.016,0.1155,-11.91,6.6,-4.08,
88109,1661545937439,-1.1757,-0.2562,0.1311,-11.3,6.02,1.22,
88110,1661545937439,-1.0824,-0.0296,0.1795,-9.5,9.32,-0.34,
88111,1661545937439,-1.1298,0.1735,0.0794,-8.8,6.44,2.39,
88112,1661545937441,-1.1259,0.0836,-0.1648,-7.29,2.21,1.13,
88113,1661545937441,-1.2245,-0.2152,0.1863,-8.6,3.98,-5.73,
88114,1661545937442,-1.0683,0.091,0.2527,-16.58,4.93,-1.71,
88115,1661545937442,-1.1034,0.0978,-0.175,-14.98,-5.73,-4.44,
88116,1661545937443,-1.1108,0.0465,-0.0071,-11.9,4.5,-1.8,
88117,1661545937443,-1.1503,-0.0262,0.4983,-7.2,3.98,-0.71,
88118,1661545937443,-1.0746,-0.0433,0.1853,-6.89,6.02,-3.89,
88119,1661545937443,-1.0888,0.0246,0.0833,-11.7,8.13,-4.35,
88120,1661545937444,-1.0619,-0.037,0.3445,-14.61,13.29,-2.35,
88121,1661545937444,-0.8861,0.0646,0.0427,-13.88,4.25,2.48,
88122,1661545937445,-0.8603,0.1915,-0.1589,-11.81,4.83,0.12,
88123,1661545937445,-0.9638,0.1032,-0.134,-4.7,-0.08,1.03,
88124,1661545937446,-0.9472,-0.0223,0.0579,-5.58,4.09,3.58,
88125,1661545937446,-0.9721,0.2247,0.0418,-9.0,-0.25,4.86,
88126,1661545937446,-0.8339,0.1329,-0.1247,-6.21,1.61,7.41,
88127,1661545937448,-0.8954,0.0607,-0.0075,-3.81,12.11,6.31,
88128,1661545937448,-0.8734,0.3663,0.2371,-3.29,11.09,4.13,
88129,1661545937448,-0.8427,0.4621,0.0335,-5.21,9.23,7.14,
88130,1661545937448,-0.9364,0.236,-0.0183,-0.61,5.84,8.51,
88131,1661545937449,-0.9599,0.1603,0.1438,-0.01,5.34,11.15,
88132,1661545937449,-0.9076,0.235,0.2381,0.6,13.88,5.23,
88133,1661545937451,-0.7704,0.8004,-0.1775,-5.79,2.54,3.77,
88134,1661545937451,-0.7724,0.4235,-0.6091,-0.7,-1.85,0.12,
88135,1661545937451,-0.7992,0.1881,-0.0329,1.39,1.87,5.14,
88136,1661545937451,-0.9071,0.504,0.0657,2.63,-5.05,0.58,
88137,1661545937451,-0.8026,0.7218,-0.3083,7.12,-10.04,-1.07,
88138,1661545937453,-0.8691,0.3829,-0.2283,6.4,-10.06,2.12,
88139,1661545937453,-0.8725,0.4567,0.3059,3.5,-7.01,0.12,
88140,1661545937453,-0.8149,0.4137,-0.0578,2.02,-7.75,-2.17,
88141,1661545937453,-0.807,0.4494,-0.302,6.49,-6.93,-4.17,
88142,1661545937453,-0.8451,0.319,0.0891,10.4,7.2,-4.99,
88143,1661545937454,-0.9013,0.0514,0.2249,6.9,4.07,1.93,
88144,1661545937454,-0.8036,0.2262,-0.2956,6.9,-7.01,0.21,
88145,1661545937455,-0.8246,0.1422,-0.3127,3.8,-5.31,-1.9,
88146,1661545937455,-1.0365,-0.1234,0.0203,2.29,-3.97,0.21,
88147,1661545937456,-0.9721,-0.0257,-0.0959,2.29,-6.24,-3.8,
88148,1661545937456,-0.9765,-0.1478,-0.1511,1.3,-6.34,-2.61,
88149,1661545937457,-0.9076,-0.0975,0.1467,5.21,-6.56,0.58,
88150,1661545937457,-1.1537,-0.2215,0.3084,2.51,-3.54,5.14,
88151,1661545937458,-1.1112,-0.1478,0.1116,0.8,-8.44,-0.98,
88152,1661545937458,-1.0995,-0.1029,-0.0285,-4.48,2.73,2.76,
88153,1661545937458,-1.1225,-0.1053,0.5349,-3.4,12.02,-0.98,
88154,1661545937459,-1.081,-0.1639,-0.1658,-5.2,2.21,-5.54,
88155,1661545937459,-0.9745,0.0119,-0.1189,-5.58,8.07,-3.35,
88156,1661545937460,-1.1615,0.1183,0.2517,-2.7,2.3,-5.73,
88157,1661545937460,-1.1171,0.026,-0.0339,-2.6,-8.7,-3.25,
88158,1661545937461,-1.0497,-0.0541,-0.3835,-7.99,-16.32,-6.35,
88159,1661545937461,-1.1,0.1251,0.0745,-11.2,-8.87,-6.81,
88160,1661545937462,-1.143,-0.0697,0.0364,-6.42,-9.2,-6.53,
88161,1661545937462,-1.1327,-0.055,0.0657,-6.3,-4.98,-7.63,
88162,1661545937463,-1.1166,0.007,0.2634,-9.07,-1.5,-5.45,
88163,1661545937463,-1.1308,-0.2533,0.1321,-6.19,-0.25,-4.08,
88164,1661545937464,-1.1479,-0.3207,0.1487,-7.2,4.67,-0.89,
88165,1661545937464,-1.2118,-0.2967,0.3699,-7.81,8.98,-2.52,
88166,1661545937464,-1.2206,-0.3959,0.1087,-11.58,2.32,-1.53,
88167,1661545937465,-1.1913,-0.3651,0.2224,-11.39,4.57,0.94,
88168,1661545937465,-1.2694,-0.3656,0.3914,-14.29,6.02,-0.8,
88169,1661545937466,-1.0277,-0.35,-0.0115,-12.69,4.24,1.4,
88170,1661545937466,-1.163,-0.3094,0.0115,-15.9,6.36,4.77,
88171,1661545937468,-1.184,-0.2103,0.3513,-15.9,0.61,6.5,
88172,1661545937468,-1.2001,-0.1493,0.2908,-18.2,-4.9,5.4,
88173,1661545937469,-1.0463,0.111,0.2127,-16.99,7.03,4.86,
88174,1661545937469,-1.0566,0.0514,-0.0408,-10.1,13.45,6.59,
88175,1661545937469,-0.9633,0.1998,0.3113,-9.99,25.22,9.24,
88176,1661545937469,-1.0238,0.3483,0.2615,-13.19,8.56,7.5,
88177,1661545937470,-0.8774,0.3781,-0.2209,-11.09,2.13,10.05,
88178,1661545937470,-0.8251,0.4674,-0.0783,-7.0,3.05,6.31,
88179,1661545937471,-0.9242,0.4528,-0.1072,-3.9,4.07,6.86,
88180,1661545937471,-0.8715,0.3302,-0.2483,-4.6,1.28,4.5,
88181,1661545937471,-0.8783,0.4557,-0.0652,-6.4,8.39,2.94,
88182,1661545937472,-0.7895,0.5949,0.1424,-5.99,1.61,4.41,
88183,1661545937472,-0.8271,0.254,-0.1565,-2.5,-3.97,6.77,
88184,1661545937473,-0.8774,0.3131,0.2161,0.4,-1.35,4.5,
88185,1661545937473,-1.0194,0.3038,0.3093,-0.21,2.97,3.31,
88186,1661545937474,-0.9198,0.1959,-0.0505,3.1,4.67,8.42,
88187,1661545937474,-0.894,0.2321,0.012,1.23,8.4,3.58,
88188,1661545937474,-0.9198,0.1393,0.1809,-0.8,13.12,4.86,
88189,1661545937475,-0.8485,0.1017,-0.0617,0.22,1.72,9.24,
88190,1661545937475,-0.8041,0.1412,-0.3122,0.2,0.85,7.78,
88191,1661545937476,-1.039,0.1642,0.2102,3.19,-4.64,9.41,
88192,1661545937476,-0.705,0.1329,-0.0427,1.41,-6.56,8.14,
88193,1661545937476,-0.8959,0.1642,-0.1858,1.18,-9.04,6.04,
88194,1661545937477,-0.8964,0.358,0.1248,-0.01,-7.01,4.96,
88195,1661545937477,-0.8266,0.2374,0.0154,-1.8,-14.45,5.49,
88196,1661545937478,-0.8383,0.4752,0.0564,-2.31,-0.75,-1.53,
88197,1661545937478,-0.996,0.4826,-0.1013,5.6,0.61,-2.98,
88198,1661545937479,-0.8471,0.2008,-0.2458,7.1,1.71,-1.07,
88199,1661545937479,-0.7978,0.4459,-0.1672,7.1,-0.92,0.76,
88200,1661545937480,-0.8632,0.5763,-0.0515,0.4,7.63,-1.07,
88201,1661545937480,-0.7802,0.2877,-0.6159,6.99,-5.07,-3.71,
88202,1661545937481,-0.9389,0.15,-0.2556,6.81,-3.44,-5.27,
88203,1661545937481,-0.913,0.109,0.114,4.19,-5.91,-8.0,
88204,1661545937482,-0.9799,0.3331,-0.1833,2.51,-20.04,-5.08,
88205,1661545937482,-1.0151,0.1725,-0.1452,5.5,-13.69,-6.44,
88206,1661545937483,-1.1401,-0.2318,0.4055,2.83,-2.34,-10.01,
88207,1661545937483,-1.0868,-0.0814,0.2122,-2.7,-2.28,-10.27,
88208,1661545937483,-1.1645,-0.1019,0.0051,0.29,-3.21,-12.1,
88209,1661545937484,-1.1523,-0.2591,0.156,2.8,4.33,-6.35,
88210,1661545937485,-1.0815,-0.3988,0.3235,-3.72,4.67,-8.91,
88211,1661545937485,-1.2133,-0.3148,0.0276,-9.5,-3.21,-7.63,
88212,1661545937485,-1.1786,-0.2499,-0.1379,-10.77,-11.74,-8.64,
88213,1661545937487,-1.2777,-0.4266,0.1765,-3.9,-4.9,-1.35,
88214,1661545937487,-1.0141,-0.2484,-0.0173,-8.4,-9.2,-4.81,
88215,1661545937487,-1.1679,-0.2421,-0.0676,-11.39,-12.42,-3.44,
88216,1661545937487,-1.1757,-0.223,0.5125,-9.2,1.37,-6.81,
88217,1661545937488,-1.2016,-0.1254,0.2298,-8.6,1.37,-3.89,
88218,1661545937488,-1.0649,-0.057,0.135,-11.21,8.63,-6.53,
88219,1661545937489,-1.0819,-0.1195,0.1126,-11.39,13.29,1.03,
88220,1661545937491,-1.08,-0.3319,0.282,-11.5,19.47,-1.25,
88221,1661545937491,-1.1518,0.1466,0.1433,-12.9,2.54,-0.25,
88222,1661545937491,-1.1352,0.1359,-0.2219,-10.69,-2.35,0.21,
88223,1661545937491,-1.2216,-0.2035,0.0891,-6.69,-0.92,-3.07,
88224,1661545937491,-1.1093,0.0592,0.2732,-13.3,7.79,3.4,
88225,1661545937491,-1.0512,0.088,-0.0246,-16.89,-4.72,-3.89,
88226,1661545937493,-1.1034,0.0651,-0.0774,-13.0,-2.02,1.48,
88227,1661545937493,-1.122,0.0143,0.5398,-9.29,1.45,-1.71,
88228,1661545937493,-1.1181,-0.0389,0.2727,-10.01,2.38,2.03,
88229,1661545937493,-1.1225,0.0612,0.0847,-12.08,3.06,-1.25,
88230,1661545937494,-1.1293,-0.0179,0.3821,-10.69,15.07,-2.17,
88231,1661545937494,-1.0048,-0.0443,0.3772,-12.49,13.29,2.58,
88232,1661545937495,-0.872,0.1603,-0.091,-15.91,4.74,1.13,
88233,1661545937495,-0.9574,0.1203,-0.1667,-10.17,2.82,5.76,
88234,1661545937495,-0.9316,-0.034,0.0247,-3.6,2.38,2.94,
88235,1661545937496,-0.9906,0.1911,0.1033,-7.0,2.64,3.86,
88236,1661545937496,-0.8398,0.1608,-0.1882,-9.7,-1.42,6.31,
88237,1661545937497,-0.8837,0.0387,-0.0823,-9.7,6.27,7.32,
88238,1661545937497,-0.8642,0.2721,0.3064,-7.78,10.85,3.95,
88239,1661545937498,-0.7895,0.4411,0.0042,-6.69,6.77,5.4,
88240,1661545937498,-0.9867,0.2565,0.0486,-0.61,10.49,8.97,
88241,1661545937498,-0.9491,0.2287,0.1179,3.8,8.98,8.79,
88242,1661545937500,-0.9862,0.15,0.1516,-0.39,13.55,4.86,
88243,1661545937500,-0.7831,0.7072,-0.0344,-8.69,13.21,6.31,
88244,1661545937501,-0.767,0.5744,-0.4983,-3.89,8.24,1.66,
88245,1661545937501,-0.7362,0.2311,-0.4787,-0.1,3.9,3.86,
88246,1661545937501,-0.8305,0.3707,-0.0652,1.73,-5.05,-2.61,
88247,1661545937501,-0.7987,0.7199,-0.2312,5.3,-15.05,-4.35,
88248,1661545937502,-0.8837,0.4411,-0.302,6.2,-15.22,-1.8,
88249,1661545937502,-0.8671,0.4801,0.1702,0.8,-5.83,-4.26,
88250,1661545937503,-0.8217,0.381,0.0203,-0.19,-5.31,-2.98,
88251,1661545937503,-0.8026,0.4337,-0.2073,5.3,-7.18,-2.8,
88252,1661545937504,-0.8446,0.3361,-0.0393,8.2,0.68,-2.43,
88253,1661545937504,-0.915,0.091,0.3308,6.41,4.93,-4.72,
88254,1661545937505,-0.8241,0.2194,-0.1789,5.3,-3.04,-7.08,
88255,1661545937506,-0.8808,-0.0209,-0.2209,4.41,-1.24,-6.53,
88256,1661545937506,-1.0028,-0.1263,-0.0481,2.81,2.48,-6.81,
88257,1661545937507,-0.9433,0.0182,-0.0793,-0.39,-0.75,-1.35,
88258,1661545937507,-0.9506,-0.1302,-0.1521,-1.2,-6.58,-4.08,
88259,1661545937508,-0.9223,-0.1463,0.0647,1.5,-14.71,-2.7,
88260,1661545937508,-1.1444,-0.2362,0.2888,-1.98,-7.59,-4.26,
88261,1661545937509,-0.9828,-0.099,-0.0027,1.5,-3.04,-2.8,
88262,1661545937509,-1.1396,-0.1527,0.2537,-2.1,5.93,-3.07,
88263,1661545937510,-1.1425,-0.1605,0.5271,-7.5,8.98,-1.53,
88264,1661545937510,-1.1044,-0.1732,0.0027,-5.21,-2.87,-2.26,
88265,1661545937510,-0.9887,-0.0121,-0.2048,-3.79,3.9,-8.09,
88266,1661545937512,-1.1225,0.1369,0.2117,-3.51,2.88,-4.9,
88267,1661545937512,-1.0448,-0.0799,-0.2727,-7.69,-3.86,-6.63,
88268,1661545937512,-1.08,0.0197,-0.238,-8.42,-12.85,-3.89,
88269,1661545937512,-1.0859,0.1417,0.1155,-7.59,-13.35,-8.09,
88270,1661545937513,-1.1156,-0.0238,0.0457,-7.18,-15.7,-6.27,
88271,1661545937513,-1.1518,-0.0736,0.0071,-6.6,-7.86,-8.27,
88272,1661545937514,-1.12,0.0451,0.2732,-7.72,1.71,-7.91,
88273,1661545937514,-1.1059,-0.18,0.1663,-7.59,1.87,-8.18,
88274,1661545937514,-1.1381,-0.3129,0.26,-7.7,6.7,-6.09,
88275,1661545937514,-1.2382,-0.3509,0.3499,-10.3,3.48,-4.26,
88276,1661545937515,-1.1645,-0.3968,0.1204,-11.1,0.18,-4.08,
88277,1661545937515,-1.1693,-0.3978,0.1551,-13.58,7.55,-2.89,
88278,1661545937516,-1.2812,-0.3558,0.3255,-12.98,6.37,-2.17,
88279,1661545937516,-1.0194,-0.3407,0.0061,-16.8,0.61,-0.71,
88280,1661545937516,-1.2333,-0.3104,0.2102,-18.89,2.04,2.3,
88281,1661545937518,-1.1098,-0.2123,0.305,-14.66,-3.19,5.05,
88282,1661545937518,-1.1864,-0.0941,0.2747,-12.1,7.12,4.22,
88283,1661545937519,-0.9931,0.129,0.2429,-14.58,17.62,4.86,
88284,1661545937519,-1.038,0.0919,-0.0168,-14.08,14.83,4.41,
88285,1661545937520,-0.9325,0.1388,0.2332,-14.99,16.0,6.95,
88286,1661545937520,-1.0351,0.3756,0.1052,-13.39,2.71,0.85,
88287,1661545937520,-0.8026,0.3146,-0.1653,-9.68,3.32,4.68,
88288,1661545937520,-0.9169,0.5167,0.0554,-7.7,6.53,0.67,
88289,1661545937521,-0.9164,0.5289,-0.0417,-7.59,9.49,4.77,
88290,1661545937521,-0.8407,0.3239,-0.2917,-8.3,5.76,3.49,
88291,1661545937521,-0.8876,0.5563,0.0217,-8.1,10.83,-0.71,
88292,1661545937522,-0.8754,0.4738,-0.0295,-2.39,-3.04,1.75,
88293,1661545937522,-0.9101,0.2746,-0.1023,-2.39,-3.38,2.67,
88294,1661545937523,-0.8808,0.3214,0.1297,-1.7,2.88,4.41,
88295,1661545937523,-0.9892,0.2638,0.239,0.4,6.94,1.48,
88296,1661545937524,-0.8866,0.2081,-0.0652,2.09,1.78,1.31,
88297,1661545937524,-0.8842,0.2418,-0.0232,-0.79,10.51,3.86,
88298,1661545937524,-0.9076,0.151,0.2107,-1.29,8.98,4.04,
88299,1661545937526,-0.8232,0.0993,-0.2082,-1.29,2.97,3.31,
88300,1661545937526,-0.9247,0.1676,-0.0661,-0.1,2.97,5.23,
88301,1661545937526,-0.996,0.15,0.1658,0.49,1.61,7.78,
88302,1661545937526,-0.7567,0.1061,0.0008,-1.4,-7.27,8.33,
88303,1661545937527,-0.956,0.2067,-0.1282,-3.6,-9.3,6.41,
88304,1661545937527,-0.9135,0.2951,0.095,-0.39,-3.88,4.04,
88305,1661545937528,-0.8129,0.1979,0.0134,5.22,-3.77,5.76,
88306,1661545937528,-0.8871,0.3956,0.0916,2.6,2.21,-0.89,
88307,1661545937528,-0.9125,0.5206,0.0335,2.98,-3.21,2.48,
88308,1661545937529,-0.7616,0.1422,-0.2483,0.8,5.43,-4.54,
88309,1661545937529,-0.8764,0.4498,-0.0613,1.9,3.73,-2.89,
88310,1661545937530,-0.8373,0.5407,0.0598,2.19,11.35,-8.73,
88311,1661545937530,-0.7704,0.3917,-0.4616,5.71,-6.32,-2.7,
88312,1661545937531,-0.9184,0.1593,-0.4167,5.68,-8.03,-3.71,
88313,1661545937531,-0.9799,0.2277,0.2083,3.19,-8.7,-0.43,
88314,1661545937532,-0.9662,0.4059,-0.2903,2.09,-18.25,-9.65,
88315,1661545937532,-0.9711,0.256,-0.3449,0.6,-8.87,-8.55,
88316,1661545937533,-1.1078,-0.2181,0.2884,5.38,-2.28,-6.44,
88317,1661545937533,-1.0668,-0.057,0.3411,1.61,-6.67,-10.36,
88318,1661545937534,-1.0985,-0.0438,-0.0539,3.39,-5.41,-8.18,
88319,1661545937534,-1.184,-0.3002,0.2522,3.03,2.9,-12.01,
88320,1661545937534,-1.1591,-0.3968,0.3064,-0.09,3.92,-2.7,
88321,1661545937536,-1.1615,-0.2753,-0.0993,-9.2,-3.21,-9.01,
88322,1661545937536,-1.122,-0.2235,-0.1633,-8.3,-11.07,1.31,
88323,1661545937537,-1.2533,-0.4408,0.1922,-6.1,-2.52,-0.06,
88324,1661545937537,-1.1005,-0.2953,0.0755,-10.89,-10.06,3.22,
88325,1661545937537,-1.184,-0.2713,-0.1731,-13.07,-9.11,2.94,
88326,1661545937537,-1.2118,-0.243,0.4099,-7.79,1.45,-0.06,
88327,1661545937538,-1.2021,-0.1512,0.2263,-12.19,-1.76,3.22,
88328,1661545937538,-1.018,-0.0282,0.0589,-17.68,5.95,1.22,
88329,1661545937539,-1.1381,-0.1752,0.1297,-13.77,6.62,0.48,
88330,1661545937539,-1.1176,-0.3094,0.2727,-9.09,17.18,3.95,
88331,1661545937539,-1.1283,0.0729,0.1419,-10.51,9.32,2.76,
88332,1661545937541,-1.1254,0.1901,-0.238,-9.97,3.58,0.48,
88333,1661545937541,-1.1488,-0.1229,0.1135,-8.8,3.57,0.03,
88334,1661545937542,-1.1225,0.0455,0.2844,-14.19,8.8,3.77,
88335,1661545937542,-0.9984,0.0827,-0.0061,-14.8,-9.63,1.03,
88336,1661545937543,-1.0912,0.069,-0.1418,-11.09,-3.28,2.76,
88337,1661545937543,-1.0907,0.0748,0.4993,-8.08,4.42,2.3,
88338,1661545937543,-1.1459,-0.0453,0.2942,-9.88,5.78,-2.17,
88339,1661545937543,-1.1078,0.0573,0.1013,-12.29,6.36,-1.07,
88340,1661545937543,-1.0785,0.0578,0.197,-16.41,7.37,0.3,
88341,1661545937544,-0.9862,-0.0565,0.3411,-12.8,12.52,-1.44,
88342,1661545937545,-0.8822,0.0949,-0.0408,-13.99,7.7,2.58,
88343,1661545937545,-0.9379,0.1266,-0.1487,-14.49,7.87,2.67,
88344,1661545937546,-0.9091,-0.0326,-0.0349,-9.18,2.73,5.32,
88345,1661545937546,-1.0243,0.1437,0.0979,-6.28,3.92,3.31,
88346,1661545937546,-0.9882,0.234,-0.0115,-7.2,-5.83,9.59,
88347,1661545937547,-0.851,0.046,-0.1697,-7.99,-0.42,7.5,
88348,1661545937547,-0.8539,0.2233,0.3045,-10.1,7.03,6.31,
88349,1661545937548,-0.7729,0.4093,0.0969,-5.9,6.1,3.95,
88350,1661545937548,-0.9291,0.3585,0.0247,-2.12,15.74,6.68,
88351,1661545937549,-0.9735,0.297,0.1668,1.09,8.3,7.5,
88352,1661545937549,-1.0302,0.1315,0.1897,-1.99,9.73,5.49,
88353,1661545937549,-0.7904,0.5929,0.0999,-7.58,11.61,5.05,
88354,1661545937550,-0.7401,0.798,-0.1833,-6.5,6.27,2.12,
88355,1661545937550,-0.7651,0.3541,-0.4817,-1.52,9.23,3.4,
88356,1661545937552,-0.7978,0.3126,-0.1164,4.8,4.16,1.84,
88357,1661545937552,-0.8183,0.7072,-0.1662,3.5,-6.93,1.57,
88358,1661545937552,-0.8984,0.4713,-0.3918,4.81,-14.94,1.4,
88359,1661545937552,-0.851,0.4264,-0.219,2.2,-10.82,-3.62,
88360,1661545937552,-0.8529,0.4459,0.2107,0.4,-5.48,0.39,
88361,1661545937553,-0.8178,0.403,-0.0906,1.7,-7.77,-3.25,
88362,1661545937553,-0.8515,0.3585,-0.0876,7.5,-5.31,-1.07,
88363,1661545937554,-0.9047,0.1378,0.3162,5.7,3.73,-1.16,
88364,1661545937554,-0.8998,0.1364,0.2361,3.61,1.11,0.67,
88365,1661545937555,-0.8022,0.1705,-0.2307,3.33,2.39,-2.26,
88366,1661545937555,-0.9945,-0.1102,-0.1033,2.0,4.07,-1.25,
88367,1661545937555,-0.9389,-0.0116,-0.1037,1.82,-1.67,-2.43,
88368,1661545937558,-1.0146,-0.0375,-0.1682,-1.0,-4.21,1.13,
88369,1661545937558,-1.0234,-0.1234,-0.1535,2.71,-3.97,1.31,
88370,1661545937558,-0.9193,-0.1654,0.0906,4.2,-0.49,-0.71,
88371,1661545937558,-1.121,-0.1566,0.2176,-3.4,-1.51,-4.54,
88372,1661545937558,-0.9335,-0.0643,-0.1081,-5.61,-13.43,-5.91,
88373,1661545937558,-1.1674,-0.1673,0.4968,-2.27,9.58,-4.9,
88374,1661545937559,-1.1518,-0.1131,0.2464,0.22,11.53,-1.53,
88375,1661545937559,-1.0678,-0.0736,-0.218,-4.3,3.57,0.76,
88376,1661545937560,-1.0121,0.0289,0.0525,-4.91,8.56,-4.17,
88377,1661545937560,-1.1269,0.1212,0.2366,-5.69,-2.26,0.48,
88378,1661545937561,-1.0019,-0.1322,-0.4177,-5.9,-9.04,-5.91,
88379,1661545937561,-1.1049,0.0636,-0.1531,-7.79,-7.18,-5.45,
88380,1661545937562,-1.1,0.0431,0.1121,-7.78,-3.1,-5.91,
88381,1661545937562,-1.1171,-0.1102,-0.0036,-7.98,-9.19,-4.17,
88382,1661545937562,-1.1186,0.0172,-0.0036,-8.1,-7.43,-4.54,
88383,1661545937563,-1.1249,0.0026,0.2249,-6.89,-5.57,-3.71,
88384,1661545937563,-1.1347,-0.2601,0.1551,-6.6,-0.83,-8.46,
88385,1661545937564,-1.2006,-0.2313,0.2957,-11.09,8.98,-9.01,
88386,1661545937565,-1.2514,-0.3773,0.2166,-12.6,5.34,-5.36,
88387,1661545937565,-1.1645,-0.3724,0.2366,-13.09,5.93,-4.63,
88388,1661545937565,-1.2196,-0.3187,0.3504,-14.49,7.53,-0.25,
88389,1661545937567,-1.1776,-0.3133,0.2,-17.09,0.27,0.76,
88390,1661545937567,-1.0653,-0.3006,-0.032,-15.28,5.11,2.48,
88391,1661545937568,-1.1752,-0.2689,0.3406,-13.87,10.51,4.04,
88392,1661545937568,-1.1195,-0.2088,0.2434,-17.01,2.38,1.57,
88393,1661545937568,-1.142,0.0612,0.2805,-19.91,8.72,3.86,
88394,1661545937568,-0.998,0.0499,0.031,-16.19,2.88,0.39,
88395,1661545937569,-1.0673,-0.0316,0.0633,-15.09,6.53,3.77,
88396,1661545937569,-0.997,0.296,0.2771,-11.21,11.68,-1.62,
88397,1661545937570,-0.997,0.3497,-0.115,-7.98,12.46,-0.52,
88398,1661545937570,-0.8393,0.4035,-0.01,-11.0,15.74,-0.43,
88399,1661545937570,-0.9013,0.5045,-0.073,-12.4,3.4,0.03,
88400,1661545937571,-0.7777,0.277,-0.3664,-6.4,-5.83,5.95,
88401,1661545937571,-0.8759,0.3771,-0.2434,-5.6,5.67,3.86,
88402,1661545937572,-0.8393,0.631,0.1931,-3.7,7.29,3.4,
88403,1661545937572,-0.8564,0.319,-0.2033,-3.78,1.03,3.58,
88404,1661545937573,-0.891,0.3375,0.0652,-5.02,3.98,4.5,
88405,1661545937573,-0.954,0.3034,0.2669,-3.99,5.6,4.77,
88406,1661545937573,-0.9076,0.2189,0.0779,-3.51,0.94,5.05,
88407,1661545937574,-0.8803,0.236,-0.115,-2.7,-1.76,3.49,
88408,1661545937574,-0.9032,0.1642,0.2244,-1.99,8.63,7.5,
88409,1661545937575,-0.9257,0.1046,0.1853,-2.38,3.83,4.22,
88410,1661545937575,-0.8305,0.1027,-0.2409,-2.3,3.48,6.95,
88411,1661545937576,-1.0458,0.1481,0.0066,-1.52,-2.35,3.49,
88412,1661545937576,-0.8656,0.1276,0.0301,-2.31,-1.76,5.05,
88413,1661545937577,-0.9941,0.15,-0.1311,-2.19,-1.51,7.6,
88414,1661545937577,-0.8241,0.276,-0.0368,2.8,8.13,4.5,
88415,1661545937577,-0.8998,0.3019,0.0803,3.0,0.61,3.95,
88416,1661545937578,-0.8197,0.3497,0.0706,1.5,7.46,11.06,
88417,1661545937578,-0.7607,0.5236,0.0833,2.02,-1.83,5.49,
88418,1661545937580,-0.9789,0.3991,-0.0774,-0.7,-2.44,3.49,
88419,1661545937580,-0.6781,0.2692,-0.261,1.0,-2.52,2.76,
88420,1661545937580,-0.8612,0.4957,-0.0193,3.18,4.57,4.22,
88421,1661545937580,-0.7865,0.4845,-0.2678,6.0,4.91,-1.62,
88422,1661545937580,-0.8178,0.2311,-0.6106,10.09,-3.54,-1.9,
88423,1661545937582,-0.9052,0.1212,-0.2585,2.52,3.83,-1.25,
88424,1661545937582,-1.0326,0.3537,0.1258,0.02,-12.41,-0.89,
88425,1661545937583,-0.9638,0.3092,-0.3733,-0.01,-24.17,-5.18,
88426,1661545937583,-1.078,-0.1459,0.1253,3.7,-12.26,-2.08,
88427,1661545937583,-1.0566,-0.0692,0.4402,0.98,5.09,-6.44,
88428,1661545937583,-1.0624,-0.0492,0.1795,0.49,-0.58,-1.35,
88429,1661545937584,-1.1527,-0.1556,-0.0149,-2.99,-7.42,-6.27,
88430,1661545937584,-1.1625,-0.3153,0.4236,-1.9,-6.34,-8.0,
88431,1661545937585,-1.2196,-0.3514,0.1848,-4.01,-0.49,-3.89,
88432,1661545937585,-1.1234,-0.2259,-0.1535,-7.2,-2.87,-10.82,
88433,1661545937586,-1.2411,-0.3573,0.198,-11.3,-0.66,-0.8,
88434,1661545937586,-1.1195,-0.3192,0.1341,-9.29,-3.79,-4.99,
88435,1661545937587,-1.1244,-0.287,-0.1902,-10.19,-11.66,1.31,
88436,1661545937587,-1.2006,-0.2831,0.3743,-12.29,-0.83,-3.35,
88437,1661545937588,-1.0815,-0.2499,0.4744,-14.19,-4.31,-0.16,
88438,1661545937588,-1.1791,-0.1073,0.1467,-16.19,3.9,-4.08,
88439,1661545937588,-1.1039,-0.0672,0.0916,-13.3,6.36,0.21,
88440,1661545937589,-1.185,-0.2836,0.2595,-11.79,15.48,-1.16,
88441,1661545937589,-1.1615,0.0119,0.2234,-11.09,6.86,2.39,
88442,1661545937590,-1.1567,0.1837,-0.1755,-7.49,4.59,-4.35,
88443,1661545937590,-1.1117,-0.0824,0.0398,-10.1,2.38,-0.98,
88444,1661545937591,-1.1899,-0.1537,0.2312,-12.8,6.77,2.94,
88445,1661545937591,-1.0326,0.0631,0.0847,-15.97,-3.44,-1.07,
88446,1661545937592,-1.1181,0.0792,-0.1599,-15.19,-3.38,0.39,
88447,1661545937592,-1.1,0.088,0.407,-12.6,1.11,0.85,
88448,1661545937593,-1.2011,-0.0375,0.3118,-11.99,2.8,1.31,
88449,1661545937593,-1.1093,0.0519,0.1082,-13.3,4.57,-0.61,
88450,1661545937594,-1.0746,0.0773,0.1941,-12.87,5.61,0.76,
88451,1661545937594,-1.0082,-0.057,0.325,-12.98,10.17,2.39,
88452,1661545937594,-0.9301,0.0548,0.0672,-11.2,7.96,3.86,
88453,1661545937595,-0.975,0.1701,-0.0139,-13.59,12.69,5.23,
88454,1661545937595,-0.9306,0.007,-0.0036,-12.49,0.35,5.14,
88455,1661545937596,-1.0146,0.1583,0.1179,-9.7,4.91,1.66,
88456,1661545937596,-0.9731,0.2462,0.0491,-9.9,3.98,1.57,
88457,1661545937598,-0.8061,0.0773,-0.2146,-6.51,2.3,7.69,
88458,1661545937598,-0.8774,0.1598,0.242,-9.09,8.89,7.5,
88459,1661545937598,-0.8764,0.3629,0.2981,-6.21,3.9,5.4,
88460,1661545937598,-0.8637,0.3771,-0.0769,-1.99,4.41,10.24,
88461,1661545937598,-0.9897,0.3102,0.0935,-0.19,10.83,8.69,
88462,1661545937599,-0.9911,0.1154,0.1145,0.29,13.79,10.88,
88463,1661545937599,-0.7607,0.4601,0.0945,-6.4,18.61,8.42,
88464,1661545937600,-0.7807,0.7692,-0.092,-5.81,7.29,4.59,
88465,1661545937600,-0.8114,0.4747,-0.3752,-0.61,1.95,10.69,
88466,1661545937602,-0.7655,0.195,-0.1946,0.49,-3.38,6.13,
88467,1661545937602,-0.8446,0.6891,-0.1301,1.0,-6.24,0.3,
88468,1661545937602,-0.8783,0.4992,-0.3039,1.12,-10.04,1.31,
88469,1661545937603,-0.8949,0.4166,-0.2292,2.0,-4.21,-4.26,
88470,1661545937603,-0.8402,0.484,0.1677,-0.16,-2.43,-0.25,
88471,1661545937603,-0.8109,0.4181,-0.1042,1.01,-7.92,-3.35,
88472,1661545937603,-0.8222,0.3961,-0.1242,7.1,-9.8,-4.17,
88473,1661545937604,-0.8871,0.2003,0.3045,7.21,0.29,-2.43,
88474,1661545937604,-0.9047,0.1701,0.2244,4.32,-1.67,-9.56,
88475,1661545937605,-0.7929,0.2072,-0.2331,2.51,-1.09,-8.46,
88476,1661545937605,-0.9613,-0.0853,-0.0862,4.11,3.75,-6.72,
88477,1661545937606,-0.9418,-0.0467,-0.0588,0.39,-4.55,-3.25,
88478,1661545937606,-0.976,-0.0692,-0.1731,-0.8,-7.34,-6.27,
88479,1661545937606,-0.9804,-0.1127,0.0198,1.9,-4.05,-5.45,
88480,1661545937606,-0.9423,-0.2113,0.0896,3.21,4.85,-2.26,
88481,1661545937608,-1.1215,-0.2171,0.2532,-2.89,4.83,-4.08,
88482,1661545937608,-0.8944,-0.0858,-0.1306,-3.69,-6.32,-0.71,
88483,1661545937608,-1.1303,-0.2215,0.3391,-6.5,3.23,-6.99,
88484,1661545937608,-1.1303,-0.1376,0.301,-4.48,6.54,0.03,
88485,1661545937609,-1.0849,-0.0697,-0.3865,-3.4,2.97,-3.16,
88486,1661545937609,-0.9701,-0.0101,-0.0993,-6.89,12.45,-0.61,
88487,1661545937610,-1.0771,0.1286,0.2141,-5.5,-4.05,-8.91,
88488,1661545937611,-0.9887,-0.1214,-0.3567,-8.69,-12.59,-1.25,
88489,1661545937611,-1.1098,0.0558,-0.2053,-11.79,-10.06,-9.37,
88490,1661545937611,-1.0971,0.111,0.1653,-11.09,-8.79,-8.09,
88491,1661545937612,-1.1259,-0.1024,0.0144,-8.3,-8.27,-10.1,
88492,1661545937613,-1.1122,0.1159,0.1887,-6.08,-8.26,-5.18,
88493,1661545937613,-1.1181,-0.0868,0.2293,-7.98,-1.16,-8.0,
88494,1661545937614,-1.1088,-0.2123,0.1985,-9.52,3.98,-5.73,
88495,1661545937614,-1.1571,-0.1962,0.2991,-8.1,5.76,-5.73,
88496,1661545937614,-1.2494,-0.3695,0.2083,-9.3,5.17,-6.18,
88497,1661545937615,-1.1767,-0.4042,0.1653,-10.8,7.2,-1.16,
88498,1661545937615,-1.2602,-0.3255,0.3089,-15.5,7.63,1.31,
88499,1661545937616,-1.0194,-0.3207,-0.0193,-18.79,-0.42,-1.16,
88500,1661545937616,-1.1625,-0.3085,0.1062,-18.09,5.84,6.04,
88501,1661545937617,-1.1781,-0.3031,0.2962,-13.38,8.82,7.32,
88502,1661545937617,-1.0902,-0.2098,0.2088,-13.99,2.54,8.05,
88503,1661545937618,-1.2026,-0.0194,0.3015,-18.18,3.66,8.05,
88504,1661545937618,-1.0038,0.0216,0.1697,-19.01,-0.16,6.41,
88505,1661545937618,-0.9926,-0.0013,0.1101,-16.09,9.9,8.14,
88506,1661545937621,-1.0053,0.3292,0.1487,-11.58,14.32,7.87,
88507,1661545937621,-1.0692,0.3209,-0.0632,-11.39,7.79,7.05,
88508,1661545937621,-0.871,0.3156,-0.0368,-12.69,9.49,7.14,
88509,1661545937621,-0.9452,0.528,0.0017,-11.3,2.88,10.78,
88510,1661545937621,-0.7973,0.2809,-0.3454,-7.99,-4.05,11.61,
88511,1661545937621,-0.8642,0.4337,-0.0554,-7.38,2.82,8.79,
88512,1661545937622,-0.8871,0.5773,0.1272,-11.32,3.73,10.33,
88513,1661545937622,-0.8788,0.3976,-0.0798,-7.3,-1.01,7.78,
88514,1661545937623,-0.9218,0.3312,0.0305,-2.1,-0.66,3.77,
88515,1661545937623,-1.0102,0.2247,0.2615,1.1,0.68,0.94,
88516,1661545937624,-0.911,0.2599,0.0281,0.6,5.0,6.13,
88517,1661545937624,-0.8749,0.2946,-0.0559,0.71,2.21,2.94,
88518,1661545937624,-0.8793,0.1969,0.135,-0.1,11.59,4.13,
88519,1661545937625,-0.8349,0.0758,-0.0393,-2.8,5.17,6.86,
88520,1661545937625,-0.8339,0.1574,-0.2004,-4.6,-0.32,5.58,
88521,1661545937626,-0.997,0.1505,-0.0491,-1.4,-3.12,2.39,
88522,1661545937626,-0.9594,0.1046,0.0623,2.6,-0.08,6.68,
88523,1661545937627,-0.9486,0.1354,-0.1067,-2.89,1.28,9.15,
88524,1661545937627,-0.8437,0.2848,0.0496,-3.09,7.29,11.06,
88525,1661545937628,-0.8822,0.2506,0.01,-0.21,-5.24,8.05,
88526,1661545937628,-0.8134,0.2291,0.072,-3.76,-0.23,5.86,
88527,1661545937629,-0.6879,0.5563,0.1658,1.9,-5.07,6.13,
88528,1661545937629,-0.9316,0.2272,-0.1174,2.28,2.3,5.95,
88529,1661545937629,-0.7714,0.3576,-0.1741,4.72,0.1,-0.43,
88530,1661545937630,-0.8764,0.4459,-0.0608,1.0,17.61,0.67,
88531,1661545937630,-0.7685,0.6041,-0.1355,0.0,6.44,-3.16,
88532,1661545937631,-0.8251,0.1793,-0.6741,1.91,-6.06,-1.35,
88533,1661545937631,-0.8764,0.0412,0.0452,1.9,-3.71,-5.73,
88534,1661545937632,-0.995,0.2814,0.1946,2.6,-18.77,-8.91,
88535,1661545937632,-0.9599,0.4186,-0.3469,2.11,-17.14,-7.36,
88536,1661545937633,-1.0409,-0.0453,-0.0105,2.11,-5.39,-6.81,
88537,1661545937633,-1.0097,-0.1205,0.427,-5.0,9.32,-3.44,
88538,1661545937633,-0.9765,-0.0516,-0.0315,-1.92,-2.95,-9.46,
88539,1661545937635,-1.162,-0.1971,0.0857,-1.11,-7.77,-6.81,
88540,1661545937635,-1.1337,-0.3592,0.4466,-2.7,-2.95,-7.18,
88541,1661545937636,-1.2143,-0.3651,0.2683,-7.7,2.47,-4.54,
88542,1661545937636,-1.122,-0.2421,-0.1482,-9.52,-1.51,-4.35,
88543,1661545937637,-1.1781,-0.327,0.0974,-12.42,-1.59,-1.25,
88544,1661545937637,-1.1025,-0.3793,0.1497,-7.59,-2.78,-0.16,
88545,1661545937637,-1.0507,-0.2577,-0.2121,-7.29,-12.59,0.85,
88546,1661545937637,-1.2045,-0.3002,0.3108,-11.9,-3.38,-5.27,
88547,1661545937639,-1.1293,-0.244,0.3318,-15.5,-3.21,-4.63,
88548,1661545937639,-1.0976,-0.0653,0.0926,-15.97,5.28,-4.72,
88549,1661545937640,-1.1278,-0.1122,0.1262,-14.49,6.02,-4.54,
88550,1661545937640,-1.1654,-0.1952,0.2166,-12.8,18.2,-0.34,
88551,1661545937640,-1.1151,-0.0575,0.3596,-13.19,4.57,1.22,
88552,1661545937640,-1.1469,0.1691,-0.2136,-13.39,1.37,0.85,
88553,1661545937641,-1.0736,0.0182,0.0095,-12.1,3.31,-1.8,
88554,1661545937641,-1.1689,0.0143,0.3679,-16.09,12.69,1.48,
88555,1661545937641,-1.0248,0.0519,-0.2449,-15.5,-3.45,1.13,
88556,1661545937643,-1.1186,0.0978,-0.0422,-17.59,-0.66,-0.71,
88557,1661545937643,-1.0761,0.1652,0.3494,-12.1,5.26,0.39,
88558,1661545937643,-1.1884,0.0114,0.3421,-9.2,1.54,-2.98,
88559,1661545937643,-1.1337,0.0436,0.1004,-10.31,2.47,-0.89,
88560,1661545937644,-1.1225,0.0851,0.2522,-14.4,4.57,-3.89,
88561,1661545937644,-0.9804,-0.0116,0.302,-13.3,10.42,1.93,
88562,1661545937645,-0.9301,0.1496,-0.0378,-14.29,10.16,3.03,
88563,1661545937645,-0.9486,0.1725,-0.073,-13.39,11.01,1.93,
88564,1661545937645,-0.9379,0.027,-0.0281,-5.29,0.09,0.76,
88565,1661545937646,-1.0458,0.1173,0.1355,-6.6,4.33,4.13,
88566,1661545937646,-0.954,0.2086,-0.1457,-9.52,-2.52,-0.25,
88567,1661545937647,-0.8901,0.0387,-0.1208,-11.3,0.09,1.93,
88568,1661545937647,-0.8852,0.1163,0.1975,-10.17,12.8,4.04,
88569,1661545937648,-0.7777,0.3634,0.1453,-7.11,6.02,3.31,
88570,1661545937648,-0.9067,0.2936,-0.0417,-1.29,10.83,8.05,
88571,1661545937649,-0.9286,0.3209,0.1873,-0.3,6.02,7.05,
88572,1661545937649,-0.9843,0.0968,0.1077,-2.8,6.53,10.14,
88573,1661545937649,-0.8158,0.3053,0.1619,-6.5,7.79,6.77,
88574,1661545937651,-0.7602,0.7379,-0.1628,-3.79,5.6,0.85,
88575,1661545937651,-0.7489,0.2628,-0.3742,-5.58,7.14,5.23,
88576,1661545937652,-0.8163,0.3893,-0.1291,-2.1,3.4,0.67,
88577,1661545937652,-0.8656,0.6061,-0.1482,0.29,-0.16,-0.25,
88578,1661545937653,-0.8324,0.507,-0.3088,5.6,-10.73,-0.98,
88579,1661545937653,-0.8754,0.4962,-0.0691,1.62,-7.75,-4.81,
88580,1661545937653,-0.8505,0.3903,0.074,-3.2,-9.3,-3.62,
88581,1661545937653,-0.8031,0.4,-0.2839,0.63,-13.42,-2.7,
88582,1661545937654,-0.8583,0.3395,0.0413,6.0,-4.9,-5.63,
88583,1661545937654,-0.8827,0.2106,0.2542,7.89,3.73,-0.8,
88584,1661545937654,-0.8998,0.1525,0.0252,4.4,1.02,-6.44,
88585,1661545937655,-0.8564,0.1129,-0.1863,2.61,1.13,-3.44,
88586,1661545937655,-1.0282,-0.0887,0.0667,-1.9,0.01,2.21,
88587,1661545937656,-0.9506,-0.0511,-0.0002,0.49,-4.38,-2.7,
88588,1661545937656,-0.9472,-0.0809,-0.1863,1.3,-4.81,0.48,
88589,1661545937657,-0.976,-0.1024,-0.0217,2.71,-1.42,-3.07,
88590,1661545937657,-0.9911,-0.2069,0.2234,1.09,-0.75,1.48,
88591,1661545937658,-1.1034,-0.0834,0.1384,-3.22,-2.87,-4.72,
88592,1661545937658,-1.0483,-0.0961,-0.1946,-4.62,-14.45,-3.62,
88593,1661545937659,-1.1928,-0.2064,0.5257,-5.98,7.72,-3.07,
88594,1661545937659,-1.1288,-0.1371,0.5134,-5.61,6.94,0.12,
88595,1661545937659,-1.0732,-0.0799,-0.3039,-3.89,3.25,1.22,
88596,1661545937660,-1.0771,0.0905,0.0833,-5.9,6.77,-7.45,
88597,1661545937660,-1.1161,0.0836,0.0589,-7.2,0.18,-2.35,
88598,1661545937661,-1.0043,-0.1146,-0.4426,-9.5,-11.57,-5.27,
88599,1661545937661,-1.0878,0.0055,-0.3005,-12.31,-7.6,-7.08,
88600,1661545937662,-1.1098,0.1647,0.095,-9.9,-6.75,-4.72,
88601,1661545937662,-1.1357,-0.1503,-0.0447,-9.79,-8.2,-4.26,
88602,1661545937663,-1.1391,0.0851,0.1282,-11.9,-9.13,-7.08,
88603,1661545937663,-1.1327,-0.0116,0.1809,-9.01,-8.37,-6.63,
88604,1661545937664,-1.1508,-0.2005,0.2112,-6.18,1.55,-6.18,
88605,1661545937664,-1.2211,-0.1898,0.3596,-12.19,5.84,-4.44,
88606,1661545937665,-1.224,-0.4154,0.2234,-14.99,2.64,-1.35,
88607,1661545937665,-1.1928,-0.4291,0.2141,-16.09,1.95,1.13,
88608,1661545937665,-1.2353,-0.2889,0.3675,-14.8,6.19,1.93,
88609,1661545937667,-1.0946,-0.2757,0.0633,-12.78,3.25,2.3,
88610,1661545937667,-1.1693,-0.2723,0.0633,-15.79,7.2,2.94,
88611,1661545937667,-1.162,-0.2977,0.2976,-16.89,6.27,1.48,
88612,1661545937667,-1.1791,-0.1864,0.1282,-17.19,-2.19,4.41,
88613,1661545937668,-1.2074,-0.0345,0.2864,-17.3,0.44,4.5,
88614,1661545937669,-1.0038,0.0685,0.2986,-16.78,-3.6,7.41,
88615,1661545937670,-1.0434,-0.0326,0.1331,-16.17,12.97,7.05,
88616,1661545937670,-1.0028,0.3483,0.2024,-10.48,20.41,4.96,
88617,1661545937670,-0.9384,0.2672,-0.0788,-11.91,13.12,7.5,
88618,1661545937670,-0.9081,0.4577,0.1482,-13.09,11.68,6.77,
88619,1661545937670,-0.9545,0.525,0.0896,-10.8,1.37,1.84,
88620,1661545937672,-0.7773,0.3043,-0.4514,-8.49,0.18,7.23,
88621,1661545937672,-0.891,0.4308,-0.1389,-9.39,7.53,3.22,
88622,1661545937672,-0.8002,0.5802,0.1126,-6.51,8.8,-2.61,
88623,1661545937672,-0.8285,0.2785,-0.259,-3.72,-0.49,-1.25,
88624,1661545937673,-0.9257,0.3073,-0.1306,-2.28,-1.5,-3.53,
88625,1661545937673,-1.0102,0.2521,0.2381,-2.89,-5.07,3.95,
88626,1661545937674,-0.911,0.2365,0.0301,-1.08,-2.26,-0.06,
88627,1661545937674,-0.8979,0.2858,0.055,-3.58,3.25,6.5,
88628,1661545937674,-0.9306,0.0695,0.1472,-2.6,12.52,3.86,
88629,1661545937675,-0.872,0.0382,0.0584,-2.89,8.56,0.03,
88630,1661545937676,-0.8266,0.1647,-0.1496,-1.2,5.0,8.97,
88631,1661545937676,-1.0097,0.1627,0.0476,-1.19,1.22,3.86,
88632,1661545937676,-0.7543,0.0714,-0.0578,-2.48,1.55,3.03,
88633,1661545937679,-0.8256,0.1144,-0.1106,-4.82,-2.61,4.41,
88634,1661545937679,-0.7826,0.3112,0.0462,-3.18,-0.31,2.3,
88635,1661545937679,-0.8935,0.2272,-0.032,-0.68,-9.11,4.59,
88636,1661545937679,-0.7724,0.4308,0.0569,2.4,-3.21,-1.25,
88637,1661545937679,-0.8427,0.4913,0.0447,1.61,-1.42,-2.26,
88638,1661545937679,-0.9389,0.297,-0.0906,3.8,11.18,-0.98,
88639,1661545937679,-0.726,0.3063,-0.2483,3.22,9.5,-3.07,
88640,1661545937680,-0.9027,0.4503,0.051,1.19,16.75,-0.34,
88641,1661545937681,-0.872,0.4694,-0.2693,-0.8,-0.25,-4.08,
88642,1661545937681,-0.852,0.1237,-0.6296,2.81,-16.8,-1.9,
88643,1661545937681,-0.8402,0.0123,-0.2331,3.39,-7.51,-1.71,
88644,1661545937682,-1.0092,0.3869,0.072,1.01,-4.63,-5.08,
88645,1661545937682,-0.9613,0.2433,-0.3879,0.89,-4.05,-6.44,
88646,1661545937683,-1.1093,-0.1429,0.1375,-1.6,0.09,-8.55,
88647,1661545937683,-1.0585,-0.0296,0.2766,-7.3,-4.9,-6.81,
88648,1661545937684,-1.0932,-0.0961,-0.1462,-5.31,-15.89,-11.1,
88649,1661545937684,-1.2133,-0.2186,0.301,4.6,2.88,-4.72,
88650,1661545937685,-1.1352,-0.3065,0.4436,-2.7,5.76,-5.36,
88651,1661545937685,-1.2192,-0.3524,0.0901,-12.98,-2.77,-9.46,
88652,1661545937686,-1.1264,-0.1796,-0.0456,-11.99,-7.94,-4.17,
88653,1661545937686,-1.2841,-0.39,0.2595,-6.08,-6.06,-4.54,
88654,1661545937687,-1.04,-0.3099,-0.0666,-13.01,-10.64,-2.98,
88655,1661545937687,-1.203,-0.2421,-0.094,-16.19,-3.45,-1.53,
88656,1661545937687,-1.1874,-0.2464,0.4192,-9.72,-1.35,0.58,
88657,1661545937688,-1.2299,-0.1742,0.1448,-13.3,-5.31,0.58,
88658,1661545937688,-1.0673,-0.0057,0.0774,-18.49,0.35,-1.71,
88659,1661545937689,-1.1166,-0.0912,0.0867,-16.66,-0.06,1.75,
88660,1661545937689,-1.099,-0.2704,0.3606,-11.3,18.7,-0.06,
88661,1661545937691,-1.142,0.026,0.1594,-9.49,11.36,0.67,
88662,1661545937691,-1.1064,0.1408,-0.1999,-9.81,8.56,-0.61,
88663,1661545937692,-1.163,0.0104,0.2107,-14.49,4.33,3.12,
88664,1661545937692,-1.1083,0.069,0.2073,-17.71,4.16,-1.35,
88665,1661545937692,-1.0443,0.026,-0.1218,-16.99,-8.37,1.66,
88666,1661545937694,-1.1303,0.0602,-0.1106,-14.4,4.74,-0.43,
88667,1661545937694,-1.0834,0.0792,0.4119,-11.2,2.54,1.03,
88668,1661545937694,-1.1386,-0.0135,0.1922,-13.7,0.68,-2.26,
88669,1661545937694,-1.1195,0.0827,0.1482,-12.28,0.87,-2.89,
88670,1661545937694,-1.0722,0.0324,0.3377,-13.0,7.79,-2.26,
88671,1661545937694,-0.974,-0.0126,0.3421,-13.91,9.49,-1.35,
88672,1661545937695,-0.9291,0.1188,0.0535,-15.09,5.84,-0.25,
88673,1661545937695,-0.9731,0.1315,-0.0158,-11.59,5.51,1.93,
88674,1661545937696,-0.9179,-0.0126,0.0457,-6.19,5.34,1.48,
88675,1661545937696,-1.0473,0.1608,0.1419,-8.3,6.19,6.31,
88676,1661545937698,-1.016,0.2287,-0.0075,-9.38,0.87,4.22,
88677,1661545937698,-0.873,0.0363,-0.1633,-10.89,5.0,7.41,
88678,1661545937698,-0.9062,0.2194,0.3123,-9.9,13.71,3.77,
88679,1661545937698,-0.787,0.3527,-0.0217,-4.62,2.64,8.97,
88680,1661545937698,-0.9369,0.2995,0.0774,-5.4,9.66,7.87,
88681,1661545937699,-0.9569,0.362,0.1829,-0.7,2.38,5.58,
88682,1661545937699,-1.0019,0.109,0.051,-5.21,9.73,11.06,
88683,1661545937700,-0.7763,0.5685,0.0965,-3.79,14.31,3.03,
88684,1661545937700,-0.7919,0.612,-0.2937,-1.69,11.44,5.86,
88685,1661545937700,-0.7997,0.3366,-0.3474,0.71,9.15,3.77,
88686,1661545937702,-0.7924,0.3073,-0.219,0.0,2.04,3.12,
88687,1661545937702,-0.8066,0.609,-0.2434,2.0,-4.05,7.14,
88688,1661545937703,-0.9193,0.4577,-0.2287,1.3,-13.35,-1.16,
88689,1661545937703,-0.8593,0.5099,0.0501,-0.5,-13.19,0.58,
88690,1661545937704,-0.8554,0.444,0.1062,0.2,-12.76,1.03,
88691,1661545937704,-0.8075,0.401,-0.177,0.1,-8.87,-4.08,
88692,1661545937705,-0.8012,0.382,-0.0574,6.08,-2.44,-0.71,
88693,1661545937705,-0.8593,0.1828,0.1604,7.5,9.66,-3.71,
88694,1661545937706,-0.8197,0.2218,-0.1384,3.8,2.64,-0.71,
88695,1661545937706,-0.8295,0.1417,-0.2033,2.51,0.77,-5.91,
88696,1661545937707,-1.0004,-0.1078,-0.052,1.9,-1.76,-5.45,
88697,1661545937707,-0.9267,-0.0272,-0.1355,1.0,-6.34,-4.9,
88698,1661545937707,-0.9721,-0.142,-0.1179,-0.39,0.18,-5.54,
88699,1661545937707,-0.8998,-0.1434,-0.0627,2.52,-7.33,-4.44,
88700,1661545937707,-1.1039,-0.2504,0.2459,-1.9,-5.91,-0.52,
88701,1661545937709,-1.1244,-0.161,0.2713,-2.19,-7.77,5.67,
88702,1661545937709,-0.9618,-0.1053,-0.177,-6.39,-5.13,2.67,
88703,1661545937710,-1.1923,-0.2279,0.4173,-10.17,12.3,8.42,
88704,1661545937710,-1.1635,-0.1092,0.2571,-7.7,3.14,0.48,
88705,1661545937710,-1.0209,-0.1083,-0.2732,-8.39,3.32,3.49,
88706,1661545937710,-1.0907,0.1256,0.1721,-7.2,2.38,1.13,
88707,1661545937711,-1.1064,0.1569,0.0994,-9.27,-0.48,-4.72,
88708,1661545937711,-0.9931,-0.0804,-0.3655,-9.76,-5.82,0.85,
88709,1661545937712,-1.1093,0.1256,-0.1736,-10.4,-3.88,-0.89,
88710,1661545937712,-1.0888,0.0578,0.0139,-14.4,-12.09,0.58,
88711,1661545937713,-1.1386,-0.0663,0.0291,-13.29,-13.08,-3.89,
88712,1661545937713,-1.102,0.1115,0.1931,-5.99,-5.15,1.93,
88713,1661545937714,-1.078,-0.1053,0.1062,-5.7,-4.98,-3.62,
88714,1661545937714,-1.144,-0.141,0.1878,-8.39,2.99,-2.08,
88715,1661545937714,-1.204,-0.1205,0.4104,-13.19,6.1,-0.8,
88716,1661545937715,-1.2187,-0.4315,0.1619,-13.19,3.64,-0.61,
88717,1661545937715,-1.1659,-0.3387,0.2381,-14.7,3.9,-1.07,
88718,1661545937717,-1.2621,-0.2572,0.3303,-15.09,7.03,-2.52,
88719,1661545937717,-1.0395,-0.3519,-0.0486,-14.4,3.81,1.48,
88720,1661545937717,-1.2035,-0.3026,0.1883,-14.98,4.76,3.95,
88721,1661545937718,-1.1464,-0.2435,0.3015,-16.6,-1.68,5.67,
88722,1661545937718,-1.1552,-0.2269,0.1341,-19.39,-4.64,6.31,
88723,1661545937718,-1.2006,0.0309,0.3142,-17.99,0.52,5.32,
88724,1661545937719,-1.0585,0.025,0.1184,-14.6,2.04,10.33,
88725,1661545937719,-0.9716,0.1881,0.2884,-16.09,15.48,10.14,
88726,1661545937720,-1.0077,0.2995,0.1189,-14.49,12.62,9.15,
88727,1661545937720,-1.0365,0.2057,-0.0954,-11.5,10.25,9.87,
88728,1661545937720,-0.9374,0.4386,0.0979,-9.7,10.33,7.78,
88729,1661545937721,-0.9159,0.5861,-0.0383,-10.69,10.33,7.05,
88730,1661545937721,-0.7924,0.278,-0.3918,-10.69,0.94,5.32,
88731,1661545937722,-0.9472,0.548,0.0232,-11.7,5.76,4.5,
88732,1661545937722,-0.8832,0.4943,-0.0857,-8.6,-4.98,2.3,
88733,1661545937723,-0.8363,0.3405,-0.195,-1.38,-3.77,2.94,
88734,1661545937723,-0.8832,0.362,0.0999,0.71,1.45,2.3,
88735,1661545937723,-0.9696,0.2199,0.1853,-0.1,4.41,7.14,
88736,1661545937724,-0.8564,0.2902,-0.0412,-3.58,7.31,7.14,
88737,1661545937724,-0.8676,0.3185,-0.008,-3.4,9.49,6.77,
88738,1661545937725,-0.9389,0.1046,0.1487,-1.9,8.89,7.87,
88739,1661545937725,-0.8647,0.0621,-0.072,-0.8,3.48,9.87,
88740,1661545937726,-0.9281,0.1632,-0.0266,-0.8,3.73,5.76,
88741,1661545937726,-1.0194,0.1539,0.031,-4.82,-0.75,9.41,
88742,1661545937726,-0.8227,0.0744,-0.0593,-3.11,1.28,10.05,
88743,1661545937727,-1.0229,0.1246,-0.0896,-5.4,-4.31,8.97,
88744,1661545937727,-0.8974,0.2086,-0.0149,-4.18,-2.43,7.78,
88745,1661545937728,-0.9203,0.1212,-0.0525,-0.38,-8.78,8.33,
88746,1661545937728,-0.7856,0.5172,0.1643,-2.38,2.73,2.48,
88747,1661545937729,-0.7406,0.5255,0.1038,-1.6,2.04,2.58,
88748,1661545937729,-0.8236,0.2081,-0.2517,2.09,7.12,5.32,
88749,1661545937730,-0.7851,0.3502,-0.1535,0.13,5.61,-0.16,
88750,1661545937730,-0.9013,0.4303,0.1004,-2.8,10.92,-1.53,
88751,1661545937730,-0.8232,0.5626,-0.1828,2.22,-12.84,-1.53,
88752,1661545937731,-0.8446,0.1417,-0.7366,0.31,-10.97,-6.63,
88753,1661545937731,-0.9037,0.07,0.1756,-0.58,6.21,-6.9,
88754,1661545937732,-0.9652,0.4586,-0.1633,-1.0,-5.31,-1.9,
88755,1661545937732,-0.9613,0.0748,-0.4118,0.49,-14.03,-9.01,
88756,1661545937733,-1.0741,-0.121,0.45,-2.82,-8.87,-4.9,
88757,1661545937733,-1.0917,-0.0399,0.4798,-2.51,-8.03,-9.74,
88758,1661545937735,-1.04,-0.1463,-0.2273,-0.61,-4.55,-7.08,
88759,1661545937735,-1.2309,-0.1439,0.2136,-3.79,4.74,-10.91,
88760,1661545937736,-1.1947,-0.3412,0.4705,-8.19,-1.68,-8.09,
88761,1661545937736,-1.1269,-0.3592,-0.1033,-8.69,-9.54,-8.27,
88762,1661545937737,-1.1122,-0.2167,-0.0007,-10.1,-6.0,-6.99,
88763,1661545937737,-1.1752,-0.4237,0.2761,-12.19,-1.01,-7.18,
88764,1661545937737,-0.9491,-0.2923,-0.1013,-10.3,-7.1,-4.81,
88765,1661545937737,-1.1703,-0.266,0.0867,-13.99,-3.45,-2.17,
88766,1661545937738,-1.0859,-0.223,0.3245,-15.09,-3.54,2.03,
88767,1661545937738,-1.1713,-0.1649,0.2454,-15.9,0.27,2.76,
88768,1661545937739,-1.0717,-0.0555,0.1258,-15.77,2.9,2.39,
88769,1661545937740,-1.1835,-0.0946,0.0633,-14.48,3.75,0.3,
88770,1661545937740,-1.0287,-0.1888,0.4148,-13.38,17.79,0.12,
88771,1661545937740,-1.1664,0.0192,-0.0276,-14.48,9.67,0.67,
88772,1661545937740,-1.0033,0.0543,-0.2063,-14.4,9.32,-2.43,
88773,1661545937742,-1.1088,0.069,0.034,-14.08,3.41,-1.53,
88774,1661545937742,-1.1234,0.0797,0.2483,-13.51,7.96,-0.52,
88775,1661545937743,-1.0883,-0.0057,-0.3025,-14.58,-5.39,-2.89,
88776,1661545937743,-1.1239,0.1046,0.0379,-14.67,5.11,2.39,
88777,1661545937743,-1.1908,0.0592,0.4793,-15.19,-2.02,-1.07,
88778,1661545937743,-1.1557,-0.0106,0.1726,-14.58,2.99,1.13,
88779,1661545937743,-1.0966,0.0939,0.0842,-12.98,-0.81,3.12,
88780,1661545937744,-1.1025,0.1022,0.2893,-14.19,8.3,-0.61,
88781,1661545937744,-0.9965,0.0407,0.3958,-14.99,6.86,0.76,
88782,1661545937745,-0.9799,0.1632,-0.0461,-14.99,7.03,0.94,
88783,1661545937745,-0.9526,0.1251,-0.0281,-10.4,6.27,3.12,
88784,1661545937746,-1.0082,0.0978,0.1541,-13.68,7.47,7.78,
88785,1661545937746,-1.0307,0.1271,0.1526,-12.4,2.3,1.93,
88786,1661545937747,-0.8256,0.132,-0.2868,-9.1,-0.25,5.4,
88787,1661545937747,-0.9677,0.131,0.0554,-9.91,7.03,4.04,
88788,1661545937749,-0.891,0.3331,0.3426,-8.69,8.8,10.14,
88789,1661545937749,-0.8857,0.2355,-0.1457,-4.1,-3.21,12.16,
88790,1661545937749,-0.8788,0.2731,0.0271,-4.8,12.19,10.69,
88791,1661545937750,-0.891,0.3302,0.1966,-0.9,3.81,10.97,
88792,1661545937750,-0.8979,0.1076,0.1082,-4.8,15.41,9.5,
88793,1661545937751,-0.8026,0.6647,0.0525,-6.69,10.16,1.93,
88794,1661545937751,-0.8442,0.4308,-0.2732,-5.7,11.35,0.03,
88795,1661545937751,-0.7216,0.2057,-0.3259,-2.1,8.47,2.48,
88796,1661545937752,-0.8363,0.4616,-0.2185,-0.8,3.05,-1.9,
88797,1661545937752,-0.7836,0.5079,-0.3108,2.81,-13.08,0.58,
88798,1661545937752,-0.9125,0.4577,-0.2693,0.6,-16.82,-4.08,
88799,1661545937753,-0.8534,0.4328,0.1258,1.82,-6.92,-3.99,
88800,1661545937753,-0.8749,0.3405,0.0203,1.19,-2.02,-5.63,
88801,1661545937754,-0.8109,0.4357,-0.2634,2.8,-4.21,-9.46,
88802,1661545937754,-0.8656,0.2916,0.1082,5.3,-1.51,-0.16,
88803,1661545937754,-0.9096,0.151,0.2102,0.58,-4.05,-3.71,
88804,1661545937755,-0.8285,0.1676,-0.1516,1.5,-6.17,-6.09,
88805,1661545937755,-0.9164,0.0548,-0.1623,2.71,-0.08,-3.8,
88806,1661545937756,-1.0067,-0.0692,0.0354,-1.72,-1.59,-6.81,
88807,1661545937756,-1.0014,-0.0467,-0.0886,-4.19,-5.24,-1.8,
88808,1661545937757,-1.039,-0.1302,-0.1213,-1.29,-8.37,-4.08,
88809,1661545937757,-0.9281,-0.2372,0.0452,1.73,-2.0,-1.35,
88810,1661545937758,-1.0859,-0.1869,0.3299,-2.31,5.51,-6.81,
88811,1661545937758,-0.8749,-0.0301,-0.2063,-6.79,-12.58,-1.62,
88812,1661545937758,-1.143,-0.2533,0.2561,-5.79,0.77,-9.56,
88813,1661545937759,-1.1347,-0.1981,0.5593,-4.18,6.79,-2.52,
88814,1661545937759,-1.122,-0.0443,-0.0471,-9.49,-1.33,-10.27,
88815,1661545937760,-1.0024,-0.0204,-0.114,-10.6,6.02,-5.63,
88816,1661545937760,-1.0942,0.1071,0.2009,-7.98,4.42,-7.72,
88817,1661545937761,-0.9447,-0.1522,-0.3703,-6.4,-3.45,-4.81,
88818,1661545937761,-1.1195,0.0827,-0.1741,-11.39,-5.83,-5.45,
88819,1661545937762,-1.0883,0.1198,0.0891,-15.09,-4.47,-8.64,
88820,1661545937762,-1.0932,-0.0575,-0.0285,-12.29,-11.16,-6.99,
88821,1661545937763,-1.0922,0.0231,-0.032,-8.2,-8.44,-0.61,
88822,1661545937763,-1.1313,0.1163,0.1775,-9.76,-3.27,-0.89,
88823,1661545937765,-1.123,-0.1962,0.1497,-12.19,0.68,-3.71,
88824,1661545937765,-1.1986,-0.1268,0.2473,-11.59,2.3,-2.89,
88825,1661545937765,-1.2797,-0.2831,0.2717,-10.51,1.95,-3.16,
88826,1661545937765,-1.205,-0.3617,0.3235,-14.29,4.91,1.75,
88827,1661545937765,-1.2377,-0.2982,0.2796,-16.6,5.6,0.85,
88828,1661545937767,-1.1376,-0.2694,0.1228,-17.01,-1.01,3.03,
88829,1661545937767,-1.0766,-0.2342,0.0286,-18.9,7.53,1.48,
88830,1661545937768,-1.1576,-0.2972,0.2918,-17.07,11.53,7.32,
88831,1661545937768,-1.08,-0.3006,0.0891,-17.99,5.09,5.32,
88832,1661545937768,-1.2484,0.0709,0.2927,-20.79,-0.75,6.13,
88833,1661545937769,-1.0385,0.0026,0.156,-17.68,-1.93,8.42,
88834,1661545937769,-1.1449,-0.0448,0.1604,-15.39,7.7,7.32,
88835,1661545937769,-1.0038,0.3644,0.3342,-14.42,12.95,4.59,
88836,1661545937770,-1.0526,0.2594,-0.1081,-11.79,6.94,3.67,
88837,1661545937770,-0.9081,0.3258,0.1687,-14.08,15.5,5.67,
88838,1661545937771,-0.8852,0.5758,0.0598,-9.09,7.7,1.13,
88839,1661545937771,-0.8339,0.3981,-0.3762,-7.98,0.62,6.59,
88840,1661545937771,-0.8588,0.3585,-0.3684,-7.21,3.14,6.04,
88841,1661545937772,-0.8871,0.5504,0.1883,-10.42,6.19,7.69,
88842,1661545937772,-0.8681,0.3688,-0.2512,-8.71,-5.15,3.67,
88843,1661545937773,-0.9262,0.424,-0.0559,-6.4,-3.88,6.41,
88844,1661545937773,-0.9335,0.2941,0.1966,-2.09,-2.26,7.5,
88845,1661545937774,-0.911,0.1745,0.1204,-0.61,0.27,14.43,
88846,1661545937774,-0.8842,0.3087,-0.0339,-0.9,0.27,12.16,
88847,1661545937775,-0.9091,0.1784,0.1721,-2.51,9.9,12.07,
88848,1661545937775,-0.8324,0.0553,0.0926,-5.47,6.62,8.33,
88849,1661545937775,-0.8398,0.0934,-0.0266,-4.19,2.3,9.78,
88850,1661545937776,-1.0072,0.1427,-0.0539,-2.8,0.85,6.68,
88851,1661545937776,-0.8857,0.1095,-0.0285,-0.8,1.2,5.05,
88852,1661545937777,-0.9726,0.1359,-0.0559,-1.38,4.85,7.6,
88853,1661545937777,-0.8661,0.2091,-0.1062,-1.8,2.21,9.32,
88854,1661545937778,-0.9174,0.2072,-0.0715,-1.61,-8.11,9.32,
88855,1661545937778,-0.8192,0.234,0.1878,-3.7,-5.24,10.42,
88856,1661545937779,-0.7382,0.4884,0.0999,-1.09,-8.53,4.86,
88857,1661545937779,-0.892,0.2853,-0.1843,1.61,5.93,11.24,
88858,1661545937779,-0.727,0.2575,-0.2312,1.19,4.5,6.31,
88859,1661545937780,-0.8817,0.3502,0.0012,-1.67,14.92,5.86,
88860,1661545937780,-0.8212,0.6134,0.032,1.01,6.28,4.04,
88861,1661545937781,-0.8691,0.2081,-0.7195,0.8,-5.24,-0.98,
88862,1661545937781,-0.851,0.091,-0.4914,-2.3,-1.94,-0.16,
88863,1661545937782,-1.0024,0.2116,0.2107,-0.79,-8.95,-3.07,
88864,1661545937782,-0.9257,0.3781,-0.4289,3.19,-16.74,-4.26,
88865,1661545937783,-1.0497,0.0123,-0.1394,-0.8,-8.7,-2.52,
88866,1661545937783,-1.0561,-0.0463,0.5027,-4.3,3.64,-0.8,
88867,1661545937785,-0.9999,-0.1166,-0.1174,-2.71,-11.92,-1.9,
88868,1661545937785,-1.1791,-0.1229,0.1321,-4.1,-2.35,-0.89,
88869,1661545937785,-1.1645,-0.2879,0.4993,-6.19,8.39,-2.7,
88870,1661545937786,-1.1996,-0.3705,0.2429,-9.88,3.83,-2.17,
88871,1661545937786,-1.0629,-0.2298,-0.1648,-10.31,-7.68,-2.61,
88872,1661545937787,-1.2655,-0.2679,0.1912,-10.39,-3.19,-2.08,
88873,1661545937787,-1.1405,-0.3783,0.1843,-9.39,-4.38,-1.16,
88874,1661545937788,-1.1327,-0.2591,-0.135,-13.8,-9.04,0.39,
88875,1661545937788,-1.1454,-0.2508,0.1575,-12.6,-2.87,-1.07,
88876,1661545937789,-1.1,-0.2411,0.2483,-12.69,-5.24,1.93,
88877,1661545937789,-1.0922,-0.1092,0.2293,-16.6,9.4,-2.52,
88878,1661545937790,-1.0815,-0.0619,0.0691,-15.41,-0.49,0.21,
88879,1661545937790,-1.1996,-0.1981,0.1697,-14.6,14.98,-3.25,
88880,1661545937791,-1.1767,-0.0419,0.4827,-13.39,10.66,-3.25,
88881,1661545937791,-1.1234,0.0353,-0.2629,-16.89,3.9,-2.26,
88882,1661545937792,-1.1049,0.112,0.0291,-15.3,5.76,-2.89,
88883,1661545937792,-1.1654,0.1071,0.365,-16.17,7.14,-0.06,
88884,1661545937793,-1.0531,-0.0145,-0.28,-12.58,-7.5,2.58,
88885,1661545937793,-1.1205,0.1544,0.0042,-13.18,1.63,0.76,
88886,1661545937793,-1.0824,0.2111,0.3225,-11.0,3.14,-1.99,
88887,1661545937793,-1.205,-0.0423,0.304,-16.4,0.52,0.39,
88888,1661545937794,-1.1449,0.0914,0.1463,-17.99,-0.83,-3.44,
88889,1661545937795,-1.1454,0.1642,0.2405,-13.5,6.6,-3.35,
88890,1661545937795,-1.0214,0.0319,0.3772,-10.68,11.44,0.85,
88891,1661545937796,-1.0097,0.1159,0.1038,-14.09,8.3,2.03,
88892,1661545937796,-0.9721,0.1491,0.0349,-17.88,5.95,1.57,
88893,1661545937797,-0.8974,0.0831,-0.0027,-13.99,2.64,8.69,
88894,1661545937797,-1.0229,0.1378,0.1677,-10.3,8.72,7.69,
88895,1661545937797,-0.9096,0.1281,-0.2156,-9.2,3.31,9.32,
88896,1661545937797,-0.7543,0.0504,-0.3171,-8.57,4.35,8.6,
88897,1661545937797,-0.9652,0.1764,0.2122,-8.71,12.52,8.24,
88898,1661545937798,-0.7265,0.3263,0.0252,-8.1,2.38,6.86,
88899,1661545937798,-0.8407,0.236,-0.1169,-5.98,3.49,4.04,
88900,1661545937799,-0.8964,0.3512,0.2683,-2.89,8.13,5.49,
88901,1661545937799,-1.0019,0.1408,0.0838,0.1,4.41,6.86,
88902,1661545937800,-0.831,0.2809,0.0662,-4.7,18.78,4.96,
88903,1661545937800,-0.7987,0.651,-0.0661,-3.99,11.35,7.23,
88904,1661545937800,-0.7543,0.255,-0.2722,-3.2,9.15,7.87,
88905,1661545937802,-0.7343,0.2453,-0.2112,-4.82,-4.47,9.32,
88906,1661545937802,-0.8061,0.5641,-0.2551,-1.99,-10.39,4.31,
88907,1661545937802,-0.8769,0.4367,-0.3083,1.3,-13.26,5.32,
88908,1661545937802,-0.9291,0.4938,-0.0422,0.9,-6.5,6.59,
88909,1661545937803,-0.9164,0.4113,0.0872,-1.69,-6.99,5.14,
88910,1661545937803,-0.8036,0.3981,-0.0451,0.0,-10.82,3.58,
88911,1661545937804,-0.8031,0.4249,-0.1501,0.6,-10.64,1.75,
88912,1661545937804,-0.8471,0.2125,0.2293,4.2,0.52,1.13,
88913,1661545937805,-0.8456,0.2267,0.0579,3.39,-2.69,-4.35,
88914,1661545937805,-0.7983,0.1964,-0.1457,3.12,0.87,-2.35,
88915,1661545937806,-0.9535,-0.055,-0.0798,1.59,1.37,3.03,
88916,1661545937806,-0.9086,-0.0629,-0.094,0.71,-1.25,-1.07,
88917,1661545937806,-1.0024,-0.0878,-0.1301,0.71,-1.51,4.77,
88918,1661545937807,-0.9565,-0.0834,-0.0793,0.4,-2.28,-0.98,
88919,1661545937807,-1.0463,-0.2728,0.1594,-2.51,-3.38,3.86,
88920,1661545937808,-1.0883,-0.2684,0.2962,-6.3,-6.67,3.31,
88921,1661545937808,-0.892,-0.0506,-0.1189,-7.5,-15.63,0.03,
88922,1661545937809,-1.1401,-0.2479,0.2146,-5.61,9.73,3.95,
88923,1661545937809,-1.1532,-0.099,0.4724,-6.8,11.68,0.76,
88924,1661545937810,-1.1098,-0.1014,-0.2658,-8.49,3.73,1.48,
88925,1661545937810,-1.1108,0.0753,0.1487,-8.42,8.3,-5.08,
88926,1661545937810,-1.0907,0.1203,0.2464,-6.18,2.9,0.58,
88927,1661545937811,-0.9609,-0.1351,-0.3713,-9.38,-7.08,5.32,
88928,1661545937811,-1.1044,0.0431,-0.238,-10.39,-12.15,0.03,
88929,1661545937812,-1.0985,0.1788,0.178,-12.69,-8.61,3.03,
88930,1661545937812,-1.099,-0.1014,-0.1316,-11.5,-9.97,-1.25,
88931,1661545937813,-1.0473,0.1452,0.0735,-12.98,-7.66,-2.35,
88932,1661545937814,-1.081,0.0294,0.2674,-13.51,-7.43,-6.35,
88933,1661545937815,-1.1498,-0.1932,0.2634,-9.09,1.45,-4.72,
88934,1661545937815,-1.1879,-0.1254,0.2498,-9.96,4.76,-6.9,
88935,1661545937815,-1.2353,-0.2352,0.2073,-16.19,2.38,-2.89,
88936,1661545937815,-1.2333,-0.3915,0.3059,-13.79,4.07,1.48,
88937,1661545937815,-1.2235,-0.3353,0.2288,-15.09,7.29,2.3,
88938,1661545937816,-1.0487,-0.2713,0.0027,-15.77,3.99,2.58,
88939,1661545937816,-1.059,-0.2577,0.0442,-16.89,7.03,6.5,
88940,1661545937817,-1.1982,-0.348,0.2425,-17.99,8.72,6.86,
88941,1661545937817,-1.0307,-0.3583,0.0579,-15.97,4.51,9.59,
88942,1661545937818,-1.2797,0.0451,0.3699,-20.78,6.21,6.41,
88943,1661545937818,-1.0839,-0.0658,0.1746,-17.99,0.68,7.78,
88944,1661545937819,-1.038,-0.1537,0.1009,-18.78,6.21,4.96,
88945,1661545937819,-0.8857,0.3102,0.3362,-15.19,19.71,4.41,
88946,1661545937820,-1.0961,0.3244,-0.0163,-12.58,13.56,4.68,
88947,1661545937820,-0.9208,0.2052,0.1594,-11.9,17.51,3.22,
88948,1661545937820,-0.9081,0.6037,0.2215,-12.6,9.06,7.23,
88949,1661545937821,-0.7362,0.3102,-0.6213,-11.52,-6.34,4.5,
88950,1661545937821,-0.7817,0.3278,-0.5373,-8.68,0.62,4.22,
88951,1661545937822,-0.9023,0.5397,0.2053,-11.9,12.52,4.31,
88952,1661545937822,-0.8857,0.4747,-0.1623,-9.79,-0.83,-1.16,
88953,1661545937823,-0.9496,0.4264,-0.2253,-5.5,-1.68,1.31,
88954,1661545937823,-0.9818,0.2101,0.3523,-4.12,-0.66,2.85,
88955,1661545937824,-0.9233,0.1876,0.2796,-3.6,-4.47,3.67,
88956,1661545937824,-0.8407,0.3019,-0.1882,-3.7,-1.68,3.86,
88957,1661545937825,-0.9223,0.2516,0.1306,-5.31,11.59,4.86,
88958,1661545937825,-0.8525,0.0338,0.2678,-5.09,12.62,7.87,
88959,1661545937826,-0.8378,0.1017,-0.2136,-4.21,2.3,7.05,
88960,1661545937826,-0.9682,0.131,-0.2239,-2.3,-1.76,5.32,
88961,1661545937826,-0.974,0.1266,0.0764,-1.7,1.95,6.95,
88962,1661545937827,-0.8622,0.0983,0.0076,-5.79,1.37,10.24,
88963,1661545937827,-0.7597,0.2062,-0.2019,-4.41,-4.05,7.5,
88964,1661545937828,-0.9984,0.1632,-0.0017,-4.82,-10.14,6.86,
88965,1661545937828,-0.9316,0.1735,0.2644,-3.6,-1.68,5.86,
88966,1661545937829,-0.8012,0.4625,0.1843,-1.69,-10.81,1.84,
88967,1661545937829,-0.9291,0.3449,-0.1775,-3.11,1.02,0.67,
88968,1661545937829,-0.7006,0.2872,-0.1819,-0.3,-1.18,0.58,
88969,1661545937831,-0.911,0.3922,0.1736,1.61,15.91,2.67,
88970,1661545937831,-0.8066,0.6154,0.1297,3.48,11.18,-4.08,
88971,1661545937831,-0.8256,0.2838,-0.7444,3.1,-8.96,-6.35,
88972,1661545937831,-0.8329,-0.0292,-0.1828,1.9,-0.75,-4.17,
88973,1661545937832,-1.0229,0.3629,0.1111,-2.18,-10.97,-9.1,
88974,1661545937832,-0.8979,0.2062,-0.531,-1.89,-16.13,-9.65,
88975,1661545937833,-1.1005,-0.0604,0.156,-2.09,-8.09,-9.1,
88976,1661545937833,-1.0629,-0.0985,0.5301,-2.12,-2.28,-9.19,
88977,1661545937834,-0.9984,-0.1771,0.0291,-3.51,-10.99,-6.53,
88978,1661545937834,-1.1337,-0.1014,0.0115,-4.41,5.09,-12.2,
88979,1661545937834,-1.143,-0.2709,0.4739,-4.59,5.78,-3.71,
88980,1661545937835,-1.1703,-0.4393,0.0657,-11.79,0.85,-5.63,
88981,1661545937836,-1.1254,-0.2147,-0.0134,-11.49,-3.36,-0.61,
88982,1661545937836,-1.2817,-0.3778,0.2102,-9.5,-2.95,-2.61,
88983,1661545937837,-1.0404,-0.305,-0.0368,-11.9,-10.39,-0.43,
88984,1661545937837,-1.1781,-0.3065,-0.0451,-12.6,-6.75,-0.61,
88985,1661545937839,-1.0497,-0.2191,0.2254,-13.68,0.29,0.48,
88986,1661545937839,-1.0756,-0.2948,0.1804,-19.39,0.44,-2.26,
88987,1661545937839,-1.1127,-0.0702,0.2088,-17.7,1.37,-0.06,
88988,1661545937840,-1.0829,-0.0677,0.0252,-14.0,-0.75,2.03,
88989,1661545937840,-1.0668,-0.1962,0.4461,-14.4,15.15,4.13,
88990,1661545937840,-1.1254,-0.0448,0.178,-11.49,14.23,-1.62,
88991,1661545937840,-1.0307,0.0236,-0.2878,-16.4,10.25,1.4,
88992,1661545937842,-1.2016,0.0866,0.3133,-16.49,1.45,0.12,
88993,1661545937842,-1.1733,0.109,0.4495,-15.79,3.05,-0.61,
88994,1661545937842,-1.0326,-0.0575,-0.2019,-13.3,-3.88,3.95,
88995,1661545937842,-1.0863,0.1066,-0.1838,-17.07,3.83,-1.07,
88996,1661545937843,-1.0727,0.1227,0.3372,-14.81,0.44,1.66,
88997,1661545937843,-1.1405,-0.0419,0.2034,-15.86,1.39,-0.16,
88998,1661545937844,-1.0956,0.0851,0.0569,-13.19,0.44,-0.89,
88999,1661545937844,-1.0429,0.047,0.2874,-15.5,6.1,3.58,
89000,1661545937844,-1.0483,0.0187,0.4197,-17.09,6.53,1.75,
89001,1661545937845,-1.0307,0.1276,0.1941,-16.19,2.21,6.41,
89002,1661545937845,-0.9516,0.1476,-0.0378,-14.09,-0.75,4.59,
89003,1661545937846,-0.8681,0.0573,0.1228,-10.49,1.61,6.77,
89004,1661545937846,-1.0102,0.1408,0.2517,-9.9,9.23,4.41,
89005,1661545937847,-0.9984,0.1652,-0.0627,-12.11,6.19,5.14,
89006,1661545937847,-0.8866,0.0939,-0.1321,-11.71,7.87,6.31,
89007,1661545937849,-0.955,0.2277,0.3811,-10.89,14.05,4.68,
89008,1661545937849,-0.8046,0.2804,-0.1526,-6.48,-2.86,5.95,
89009,1661545937849,-0.9169,0.3224,0.051,-4.99,7.05,1.03,
89010,1661545937850,-0.9213,0.3888,0.24,-0.68,7.31,6.41,
89011,1661545937850,-0.9872,0.0924,0.0379,-1.08,12.46,11.43,
89012,1661545937850,-0.7421,0.4684,0.0618,-2.59,15.42,4.31,
89013,1661545937851,-0.8168,0.5143,-0.0979,-5.41,8.13,2.67,
89014,1661545937851,-0.7646,0.3156,-0.1521,-2.8,7.37,4.22,
89015,1661545937852,-0.7411,0.341,-0.3191,-1.7,-2.11,9.15,
89016,1661545937852,-0.7895,0.5548,-0.2449,-1.09,-0.32,4.96,
89017,1661545937852,-0.9359,0.4367,-0.1907,-2.39,-12.42,3.58,
89018,1661545937853,-0.8544,0.4274,-0.0437,-1.9,-9.46,1.84,
89019,1661545937853,-0.9071,0.3986,-0.0129,-1.72,-12.76,-0.06,
89020,1661545937854,-0.829,0.4401,-0.1799,3.9,-7.1,2.76,
89021,1661545937854,-0.8046,0.3283,-0.0598,3.5,0.01,-0.52,
89022,1661545937854,-0.8227,0.1828,0.093,2.09,1.45,-0.43,
89023,1661545937855,-0.8002,0.1979,-0.114,1.61,-5.07,-3.44,
89024,1661545937855,-0.8803,0.1188,-0.113,1.7,2.13,-2.8,
89025,1661545937856,-1.0082,-0.0487,0.0315,-0.79,0.53,-5.73,
89026,1661545937856,-0.9609,-0.034,-0.1355,-2.1,-2.02,-5.18,
89027,1661545937857,-1.079,-0.0961,-0.0442,-5.0,-5.48,0.39,
89028,1661545937857,-0.9145,-0.1429,-0.0232,0.22,-11.55,2.39,
89029,1661545937857,-1.0741,-0.266,0.2742,-0.7,0.85,6.68,
89030,1661545937858,-0.9316,-0.0223,0.0017,-2.91,3.31,4.41,
89031,1661545937858,-0.9638,-0.0951,-0.2204,-7.59,-1.09,3.31,
89032,1661545937859,-1.1283,-0.3006,0.3333,-12.28,9.17,6.59,
89033,1661545937859,-1.1215,-0.0384,0.1873,-9.39,0.61,-4.44,
89034,1661545937860,-0.9735,-0.0902,-0.2375,-6.82,6.02,-0.43,
89035,1661545937860,-1.0873,0.0519,0.1653,-9.2,8.3,0.03,
89036,1661545937861,-1.1425,0.1022,0.0945,-11.59,2.8,-3.16,
89037,1661545937861,-0.9833,-0.1307,-0.4021,-11.2,-7.27,0.67,
89038,1661545937862,-1.1322,0.1647,-0.0857,-16.31,-6.93,-6.27,
89039,1661545937862,-1.0937,0.0529,0.0657,-11.7,-12.33,1.22,
89040,1661545937864,-1.0776,-0.0677,-0.0691,-12.4,-6.08,-1.8,
89041,1661545937864,-1.1108,0.1325,0.114,-13.3,-3.62,2.48,
89042,1661545937865,-1.1371,-0.1097,0.2337,-14.99,-1.51,1.57,
89043,1661545937865,-1.2021,-0.1424,0.3816,-13.19,2.71,4.5,
89044,1661545937865,-1.2187,-0.0795,0.3274,-13.5,2.38,-3.07,
89045,1661545937865,-1.1806,-0.2972,0.1638,-15.21,3.98,-2.61,
89046,1661545937865,-1.1982,-0.3744,0.3889,-18.46,10.01,-1.8,
89047,1661545937866,-1.2484,-0.2464,0.305,-15.8,3.05,-3.62,
89048,1661545937866,-1.0727,-0.2733,0.0349,-17.6,3.23,0.12,
89049,1661545937867,-1.1703,-0.3046,0.2259,-14.89,1.54,3.22,
89050,1661545937867,-1.0004,-0.3724,0.1497,-17.89,-1.25,4.31,
89051,1661545937868,-1.183,-0.2035,0.1677,-20.81,5.93,2.03,
89052,1661545937868,-1.2123,0.1251,0.3333,-20.29,15.74,6.41,
89053,1661545937870,-1.016,-0.078,0.0384,-17.7,8.89,8.42,
89054,1661545937870,-0.915,0.2145,0.3157,-19.97,9.24,0.03,
89055,1661545937870,-1.0985,0.36,0.0755,-13.59,2.64,4.5,
89056,1661545937871,-1.0273,0.1344,-0.1091,-9.99,12.11,-0.52,
89057,1661545937871,-0.9555,0.4176,0.3123,-10.62,20.99,-0.61,
89058,1661545937872,-0.8442,0.5519,-0.0788,-14.19,7.7,-1.62,
89059,1661545937872,-0.7553,0.3087,-0.4822,-12.4,-4.31,3.58,
89060,1661545937873,-0.914,0.5514,0.1555,-11.79,-1.01,-0.52,
89061,1661545937873,-0.9086,0.4884,-0.1379,-4.8,-4.55,-3.71,
89062,1661545937874,-0.9755,0.3888,-0.2551,-3.7,7.03,-1.99,
89063,1661545937874,-0.8734,0.3737,0.0813,-5.79,8.47,-3.99,
89064,1661545937875,-0.9311,0.2081,0.1922,-5.58,2.48,0.58,
89065,1661545937875,-0.8588,0.3014,-0.1662,-2.62,-5.57,2.85,
89066,1661545937876,-0.9135,0.2628,0.1077,-1.8,-0.66,4.5,
89067,1661545937876,-0.8554,0.0475,0.2556,-3.09,6.27,4.86,
89068,1661545937876,-0.8573,0.0724,0.0764,-4.8,3.48,1.66,
89069,1661545937877,-0.9643,0.1437,-0.1496,-7.09,5.0,8.6,
89070,1661545937877,-0.976,0.1022,0.0032,-4.62,-0.42,10.05,
89071,1661545937878,-0.7802,0.1505,0.0012,-2.8,0.27,8.05,
89072,1661545937878,-1.0072,0.1676,-0.1213,-1.7,-5.57,12.71,
89073,1661545937878,-0.9403,0.193,-0.1418,0.6,-2.95,9.5,
89074,1661545937879,-1.0038,0.1207,0.1345,-3.9,0.94,11.97,
89075,1661545937879,-0.7411,0.4235,0.0618,-5.0,2.8,5.86,
89076,1661545937879,-0.8217,0.3952,-0.1579,-2.31,2.54,9.32,
89077,1661545937880,-0.8168,0.2877,-0.2229,1.18,3.9,0.85,
89078,1661545937880,-0.7362,0.2379,-0.2307,1.9,-1.42,7.78,
89079,1661545937880,-0.8129,0.5231,0.1712,-2.6,11.01,5.05,
89080,1661545937881,-0.8525,0.3458,-0.5046,-0.7,-5.65,1.22,
89081,1661545937881,-0.8598,0.0866,-0.7058,0.49,-3.45,2.03,
89082,1661545937882,-0.9291,0.0499,0.034,0.0,0.77,3.4,
89083,1661545937882,-0.9906,0.4977,-0.0486,-0.5,-12.0,-1.44,
89084,1661545937883,-0.9696,0.0714,-0.3332,-4.59,-19.5,0.03,
89085,1661545937883,-1.0609,-0.0926,0.4251,-1.22,-2.02,2.39,
89086,1661545937884,-1.0785,-0.0702,0.4656,1.18,-4.38,1.22,
89087,1661545937884,-1.0248,-0.1034,-0.1208,-0.39,-4.9,-1.44,
89088,1661545937885,-1.1498,-0.0892,0.2185,-6.6,-1.85,0.39,
89089,1661545937885,-1.1684,-0.3749,0.2595,-9.79,-3.21,-4.08,
89090,1661545937886,-1.1171,-0.3026,-0.0788,-10.8,-4.21,-2.35,
89091,1661545937886,-1.2109,-0.1942,0.094,-13.7,-3.45,-4.9,
89092,1661545937887,-1.1723,-0.4115,0.1692,-13.3,-4.05,-0.89,
89093,1661545937887,-1.0214,-0.2948,-0.0285,-11.3,-3.45,-6.44,
89094,1661545937887,-1.1547,-0.3231,0.1629,-16.31,-2.95,-6.53,
89095,1661545937889,-1.0605,-0.2953,0.218,-14.09,-5.65,-7.36,
89096,1661545937889,-1.1762,-0.1796,0.2981,-20.2,4.24,-3.16,
89097,1661545937890,-1.1366,-0.0482,0.261,-16.89,3.05,-7.08,
89098,1661545937890,-1.2235,-0.1175,0.012,-14.99,7.03,2.12,
89099,1661545937890,-1.1244,-0.1107,0.4011,-14.8,14.31,-1.16,
89100,1661545937890,-1.2245,-0.0135,-0.1604,-15.96,0.29,0.94,
89101,1661545937892,-1.0736,0.0617,-0.1697,-13.88,2.22,0.67,
89102,1661545937892,-1.1728,0.1329,0.4334,-13.3,11.18,-0.34,
89103,1661545937892,-1.0893,0.0973,0.2127,-15.7,6.36,-1.71,
89104,1661545937892,-1.0404,-0.0204,-0.3835,-17.51,-3.88,2.76,
89105,1661545937892,-1.0683,0.1828,0.2522,-13.9,-4.31,-0.52,
89106,1661545937893,-1.1928,0.0426,0.4431,-13.9,-1.68,-0.06,
89107,1661545937893,-1.1752,0.0553,0.1262,-15.99,2.54,2.39,
89108,1661545937894,-1.1454,0.1564,0.1448,-17.79,3.64,-1.25,
89109,1661545937894,-1.0077,0.0514,0.3269,-15.9,12.78,4.59,
89110,1661545937895,-1.039,0.0197,0.2805,-11.3,8.13,4.22,
89111,1661545937895,-1.017,0.1593,0.052,-13.01,11.76,3.67,
89112,1661545937897,-0.9291,0.1588,-0.0422,-12.4,0.35,6.04,
89113,1661545937897,-0.9594,0.1222,0.0755,-14.19,6.44,5.05,
89114,1661545937897,-0.9848,0.1657,-0.07,-13.38,1.96,3.95,
89115,1661545937897,-0.789,0.0929,-0.2361,-11.0,-1.42,6.95,
89116,1661545937897,-0.995,0.1041,0.0838,-11.39,4.67,4.86,
89117,1661545937898,-0.9198,0.2638,0.2918,-9.36,12.37,10.51,
89118,1661545937898,-0.9643,0.1969,-0.1697,-9.68,5.52,12.89,
89119,1661545937899,-0.9672,0.3942,0.2259,-6.19,13.62,9.5,
89120,1661545937899,-0.935,0.2902,0.2454,-6.69,-5.15,13.42,
89121,1661545937900,-0.9379,0.1115,0.0828,-4.3,6.77,10.51,
89122,1661545937900,-0.7553,0.5294,0.0095,-3.51,4.5,5.58,
89123,1661545937900,-0.7802,0.3942,-0.1994,-5.6,16.67,5.14,
89124,1661545937902,-0.7211,0.4,-0.2497,-3.0,13.79,8.51,
89125,1661545937902,-0.7978,0.4611,-0.3469,-2.89,6.7,3.31,
89126,1661545937903,-0.8134,0.4357,-0.2702,-3.4,-8.03,2.76,
89127,1661545937903,-0.9496,0.5304,-0.1028,-0.1,-17.67,-2.26,
89128,1661545937903,-0.8627,0.4664,0.0554,-1.09,-16.15,2.3,
89129,1661545937903,-0.8349,0.4318,-0.1374,-1.9,-10.64,-3.71,
89130,1661545937904,-0.8036,0.3693,-0.0403,-0.09,1.63,-6.44,
89131,1661545937904,-0.8119,0.2365,0.1043,1.01,6.71,-6.72,
89132,1661545937905,-0.87,0.2287,0.1043,3.1,2.97,-11.92,
89133,1661545937905,-0.8466,0.1471,-0.1081,1.19,-4.55,-6.27,
89134,1661545937905,-0.9682,-0.0487,-0.032,0.71,-3.21,-10.46,
89135,1661545937906,-0.9345,-0.0189,-0.1697,-1.7,-1.94,-6.44,
89136,1661545937906,-1.0736,-0.1127,-0.1247,-3.51,5.17,-9.19,
89137,1661545937907,-1.0175,-0.0951,-0.071,-2.62,-4.14,-7.91,
89138,1661545937907,-0.9897,-0.2328,0.0974,-3.51,-11.16,-1.44,
89139,1661545937908,-1.0976,-0.2093,0.2771,-1.4,-2.95,2.76,
89140,1661545937908,-0.9731,-0.077,-0.1028,-5.5,-10.23,-3.44,
89141,1661545937909,-1.1493,-0.2596,0.3826,-11.39,7.29,-0.06,
89142,1661545937909,-1.1264,-0.0912,0.304,-8.19,3.05,-2.52,
89143,1661545937910,-0.9804,-0.1493,-0.1252,-7.0,9.4,1.57,
89144,1661545937910,-1.0634,0.0573,0.2092,-8.3,8.56,-1.16,
89145,1661545937911,-1.1361,0.1183,0.0877,-10.6,2.38,-4.44,
89146,1661545937911,-0.976,-0.1127,-0.406,-16.58,-3.77,-0.8,
89147,1661545937912,-1.121,0.1193,-0.1316,-12.8,-4.9,-0.71,
89148,1661545937912,-1.0946,0.1173,0.0208,-12.71,-15.55,0.12,
89149,1661545937913,-1.0717,-0.0521,-0.1384,-11.07,-10.62,-3.44,
89150,1661545937913,-1.0692,0.1095,0.115,-13.39,-4.38,2.76,
89151,1661545937913,-1.0961,-0.1004,0.2219,-13.5,-3.71,0.85,
89152,1661545937915,-1.1859,-0.0668,0.3303,-11.59,1.37,1.13,
89153,1661545937915,-1.2177,-0.0194,0.3465,-10.4,5.26,-1.71,
89154,1661545937916,-1.1899,-0.3163,0.1956,-14.67,3.83,3.67,
89155,1661545937916,-1.1942,-0.3597,0.2761,-16.99,8.47,-2.89,
89156,1661545937917,-1.2143,-0.2333,0.2356,-15.61,6.1,0.12,
89157,1661545937917,-1.059,-0.3143,-0.0754,-17.56,5.28,3.12,
89158,1661545937918,-1.1918,-0.3021,0.1756,-19.98,4.33,4.31,
89159,1661545937918,-1.0478,-0.3719,0.1492,-18.99,-5.07,3.86,
89160,1661545937919,-1.1767,-0.3231,0.1389,-19.3,-6.67,2.94,
89161,1661545937919,-1.2157,0.0246,0.2547,-19.59,-2.11,4.41,
89162,1661545937920,-1.0526,-0.0707,0.0935,-14.99,6.44,8.88,
89163,1661545937920,-1.0717,0.1427,0.3504,-19.07,13.47,4.31,
89164,1661545937920,-1.0966,0.3273,0.1883,-18.78,5.02,6.68,
89165,1661545937920,-1.0893,0.1798,0.0017,-15.39,4.41,6.95,
89166,1661545937920,-0.9735,0.3986,0.1726,-11.9,12.45,5.14,
89167,1661545937921,-0.9179,0.5485,0.0525,-9.0,17.51,5.95,
89168,1661545937921,-0.7304,0.3058,-0.4651,-10.48,10.1,0.58,
89169,1661545937922,-0.8671,0.6017,-0.136,-12.39,4.25,2.12,
89170,1661545937922,-0.9062,0.4816,-0.0281,-11.01,-8.7,-1.71,
89171,1661545937923,-0.8925,0.3322,-0.1325,-7.2,-5.74,3.31,
89172,1661545937923,-0.894,0.4313,-0.0207,-3.0,5.0,-0.98,
89173,1661545937924,-0.934,0.2443,0.1009,-4.89,8.39,-1.9,
89174,1661545937924,-0.8637,0.3112,0.0774,-3.58,6.04,1.13,
89175,1661545937925,-0.8998,0.2892,0.1677,-2.19,4.83,2.94,
89176,1661545937925,-0.9521,0.1437,0.1702,-3.6,3.9,3.67,
89177,1661545937925,-0.8827,0.0914,0.1326,-2.38,1.8,7.32,
89178,1661545937926,-0.9438,0.1085,0.0481,-4.18,2.15,11.33,
89179,1661545937926,-1.0043,0.1012,-0.0998,-4.1,-3.88,8.33,
89180,1661545937927,-0.8471,0.1012,-0.0617,-5.9,-2.02,7.23,
89181,1661545937927,-1.0004,0.1725,-0.0149,-6.89,-5.15,7.6,
89182,1661545937928,-0.8691,0.1427,-0.0691,-3.0,-3.38,5.67,
89183,1661545937928,-1.0287,0.1173,-0.0559,-1.4,-9.46,4.96,
89184,1661545937928,-0.7372,0.4508,0.1062,-1.6,-1.59,6.5,
89185,1661545937929,-0.8451,0.4454,0.1004,-0.59,1.46,5.05,
89186,1661545937929,-0.9115,0.2765,-0.1335,-2.18,8.31,3.31,
89187,1661545937930,-0.703,0.2101,-0.3879,-0.88,-0.64,4.59,
89188,1661545937930,-0.8261,0.4752,0.2698,-1.09,17.35,0.94,
89189,1661545937931,-0.8359,0.4166,-0.362,0.1,-0.08,3.22,
89190,1661545937931,-0.8378,0.1388,-0.8366,2.2,-2.69,-4.54,
89191,1661545937931,-0.8568,0.0475,-0.1565,-0.9,4.16,-1.07,
89192,1661545937932,-1.017,0.4445,0.0047,-5.7,-10.47,-3.99,
89193,1661545937933,-0.9428,0.0436,-0.5193,-3.9,-20.37,-1.8,
89194,1661545937933,-1.0844,-0.0174,0.3274,-1.09,-3.54,-0.61,
89195,1661545937934,-1.0224,-0.0795,0.2009,-2.28,-5.56,-3.35,
89196,1661545937934,-1.04,-0.162,-0.1706,-4.6,-8.44,-4.63,
89197,1661545937935,-1.1708,-0.0868,0.1936,-5.21,-2.35,-12.56,
89198,1661545937935,-1.1464,-0.3075,0.3245,-6.39,1.13,-8.0,
89199,1661545937936,-1.1025,-0.3612,-0.1101,-11.2,-0.83,-14.56,
89200,1661545937937,-1.162,-0.1918,0.0808,-13.99,-1.01,-6.0,
89201,1661545937937,-1.1811,-0.4066,0.1756,-13.3,-4.21,-9.1,
89202,1661545937937,-0.9916,-0.2875,-0.053,-13.39,-8.2,-1.71,
89203,1661545937937,-1.1869,-0.3568,0.1565,-14.09,-9.2,-4.99,
89204,1661545937939,-1.0219,-0.2787,0.2014,-17.19,-8.2,1.48,
89205,1661545937939,-1.1567,-0.1449,0.3181,-20.11,5.09,-0.25,
89206,1661545937940,-1.0795,-0.1332,0.1848,-18.6,4.83,5.05,
89207,1661545937940,-1.1635,-0.1478,0.1038,-16.67,6.95,1.66,
89208,1661545937940,-1.038,-0.0692,0.43,-11.68,16.09,-0.98,
89209,1661545937940,-1.1723,-0.0189,-0.1203,-13.71,1.45,1.66,
89210,1661545937942,-1.0263,0.0509,-0.1579,-17.59,9.99,2.58,
89211,1661545937942,-1.1796,0.1163,0.3855,-14.78,12.04,5.23,
89212,1661545937942,-0.9941,-0.035,-0.2219,-14.77,8.07,6.31,
89213,1661545937942,-1.0556,0.0094,-0.2859,-17.7,-6.75,5.67,
89214,1661545937942,-1.0732,0.1725,0.1531,-18.58,-5.05,3.22,
89215,1661545937943,-1.1469,0.026,0.3772,-13.9,-9.97,4.22,
89216,1661545937944,-1.1615,-0.0189,0.1365,-15.38,-1.67,3.58,
89217,1661545937944,-1.1386,0.1515,0.2068,-15.41,2.8,2.12,
89218,1661545937944,-1.0297,0.0451,0.3523,-13.9,12.36,0.94,
89219,1661545937945,-1.06,0.0416,0.2141,-14.7,11.94,3.4,
89220,1661545937945,-1.0658,0.1207,0.1653,-15.99,12.52,3.03,
89221,1661545937946,-0.9662,0.1364,0.0774,-15.5,-3.38,2.21,
89222,1661545937946,-0.9555,0.1232,0.1013,-14.26,3.58,3.58,
89223,1661545937947,-1.0248,0.1862,-0.0549,-10.8,1.45,5.86,
89224,1661545937947,-0.7567,0.0714,-0.2346,-11.39,3.48,5.14,
89225,1661545937948,-0.9677,0.1286,0.0061,-12.98,7.64,5.86,
89226,1661545937948,-0.9638,0.2794,0.302,-12.58,13.47,3.95,
89227,1661545937948,-0.9301,0.2653,-0.2009,-6.62,2.71,4.68,
89228,1661545937949,-0.9682,0.3917,0.1873,-6.89,8.47,2.21,
89229,1661545937949,-1.0629,0.1681,0.1326,-1.4,-8.03,10.14,
89230,1661545937950,-0.9638,0.0983,0.1214,-4.47,6.37,6.13,
89231,1661545937950,-0.7597,0.5231,0.055,-4.8,4.91,6.68,
89232,1661545937950,-0.8373,0.3844,-0.0866,-6.1,19.04,9.32,
89233,1661545937952,-0.7099,0.3458,-0.2326,-1.67,16.09,8.42,
89234,1661545937952,-0.7724,0.4157,-0.3762,-1.08,8.07,9.24,
89235,1661545937953,-0.7787,0.4806,-0.3157,-2.3,-3.97,3.4,
89236,1661545937953,-0.9262,0.4865,-0.2595,-2.38,-21.2,0.58,
89237,1661545937953,-0.849,0.4328,-0.0451,-2.38,-12.58,-0.16,
89238,1661545937953,-0.8315,0.4718,-0.1106,0.49,-8.96,-0.25,
89239,1661545937954,-0.8022,0.3844,-0.1423,1.61,-2.35,1.93,
89240,1661545937954,-0.8276,0.2643,-0.0007,0.71,0.77,-4.54,
89241,1661545937955,-0.8852,0.2589,0.1668,1.9,1.11,-4.63,
89242,1661545937955,-0.8412,0.1945,-0.0583,-0.8,-5.24,-6.72,
89243,1661545937955,-0.976,-0.0262,-0.0173,-0.3,-0.08,-5.36,
89244,1661545937956,-0.8827,0.0021,-0.1111,-1.89,-1.0,-3.71,
89245,1661545937956,-1.0351,-0.0873,-0.135,-2.38,10.27,-5.63,
89246,1661545937957,-1.0009,-0.0653,-0.1242,-0.9,5.76,-5.36,
89247,1661545937957,-0.9135,-0.2045,-0.0344,0.28,-4.55,-4.72,
89248,1661545937958,-1.0512,-0.2533,0.2508,-4.89,-10.47,-2.61,
89249,1661545937958,-0.9853,-0.0438,-0.071,-7.49,-14.01,2.48,
89250,1661545937959,-1.1386,-0.3207,0.2473,-12.81,4.91,8.33,
89251,1661545937959,-1.1298,-0.1293,0.4417,-9.91,5.84,-1.9,
89252,1661545937960,-1.0624,-0.1288,-0.0735,-9.09,6.1,1.22,
89253,1661545937960,-1.0692,-0.0111,0.1228,-8.3,7.29,2.03,
89254,1661545937961,-1.1269,0.0485,0.1726,-9.9,6.86,-1.8,
89255,1661545937961,-0.9599,-0.0394,-0.2546,-13.19,-2.44,1.66,
89256,1661545937962,-1.1029,-0.0008,-0.3274,-16.58,-11.14,-0.06,
89257,1661545937962,-1.0873,0.0797,0.0208,-13.79,-8.53,4.04,
89258,1661545937962,-1.0756,-0.0531,-0.0549,-13.32,-10.47,1.93,
89259,1661545937963,-1.0585,0.1437,0.0559,-13.77,-12.49,0.76,
89260,1661545937963,-1.1176,-0.0668,0.2053,-13.68,-12.32,1.57,
89261,1661545937965,-1.1664,-0.121,0.3953,-12.89,3.14,-0.8,
89262,1661545937965,-1.1557,-0.0057,0.3816,-13.7,9.06,-7.18,
89263,1661545937966,-1.2016,-0.2215,0.1497,-14.42,8.3,-5.45,
89264,1661545937966,-1.2026,-0.4144,0.3264,-15.38,10.01,-6.72,
89265,1661545937966,-1.2626,-0.2782,0.3826,-13.9,7.53,0.21,
89266,1661545937966,-1.0736,-0.3075,-0.052,-15.21,2.47,0.48,
89267,1661545937967,-1.182,-0.2767,0.114,-19.59,6.19,0.58,
89268,1661545937968,-1.057,-0.3885,0.1848,-21.19,-1.01,2.12,
89269,1661545937968,-1.1332,-0.3837,0.156,-22.67,-2.77,1.48,
89270,1661545937969,-1.2494,-0.0433,0.2346,-18.47,0.79,3.22,
89271,1661545937970,-1.0483,-0.0599,0.1599,-16.4,7.37,5.49,
89272,1661545937970,-1.1068,0.0871,0.3015,-20.2,14.48,3.03,
89273,1661545937970,-1.0531,0.3273,0.1809,-19.6,9.23,2.85,
89274,1661545937970,-0.9071,0.0787,0.0042,-17.77,2.48,5.76,
89275,1661545937970,-0.9408,0.3229,0.1834,-13.07,10.27,7.87,
89276,1661545937971,-0.9174,0.5773,0.0569,-9.29,16.25,7.05,
89277,1661545937971,-0.7426,0.3078,-0.4983,-10.78,13.9,3.67,
89278,1661545937972,-0.831,0.5446,-0.155,-13.09,10.08,2.85,
89279,1661545937972,-0.8276,0.4938,-0.0852,-10.48,-8.01,4.31,
89280,1661545937973,-0.8827,0.3825,-0.3127,-2.5,-10.14,4.5,
89281,1661545937973,-0.8871,0.4704,-0.1272,-3.0,4.91,4.77,
89282,1661545937974,-0.9296,0.2472,0.1492,-5.69,7.05,5.4,
89283,1661545937974,-0.8598,0.3029,0.0359,-6.4,7.63,1.57,
89284,1661545937974,-0.8788,0.3019,0.0559,-7.29,5.34,3.77,
89285,1661545937975,-0.9462,0.1725,0.135,-4.88,5.86,3.95,
89286,1661545937975,-0.8676,0.0885,0.1917,-2.3,4.33,7.14,
89287,1661545937976,-0.9057,0.1007,-0.0124,-2.6,3.57,5.86,
89288,1661545937976,-0.9848,0.1071,-0.1091,-3.52,0.68,9.96,
89289,1661545937977,-0.893,0.1056,-0.0329,-6.1,3.05,6.04,
89290,1661545937977,-0.8866,0.1788,-0.0408,-10.4,-1.09,13.33,
89291,1661545937978,-0.7763,0.1564,-0.2102,-5.11,0.77,7.69,
89292,1661545937978,-1.059,0.1046,-0.0349,-2.12,-9.97,12.16,
89293,1661545937978,-0.7362,0.3986,0.1472,-4.12,-9.63,1.75,
89294,1661545937979,-0.8227,0.444,0.0442,-0.5,-14.19,6.13,
89295,1661545937979,-0.9071,0.3693,0.0164,-4.19,-2.19,3.49,
89296,1661545937980,-0.767,0.1691,-0.3,-4.97,-9.88,5.58,
89297,1661545937980,-0.9076,0.359,0.159,-0.91,16.58,3.03,
89298,1661545937982,-0.8905,0.6203,-0.0217,3.19,8.47,-0.16,
89299,1661545937982,-0.8979,0.2868,-0.5876,3.32,-0.57,-3.62,
89300,1661545937982,-0.8241,-0.0223,-0.3264,0.0,2.47,-3.53,
89301,1661545937982,-1.0385,0.4005,0.1917,-6.98,-4.37,-8.82,
89302,1661545937984,-0.8901,0.1359,-0.508,-4.6,-21.3,-8.0,
89303,1661545937984,-1.0854,-0.0296,0.0613,-3.0,-11.49,-8.0,
89304,1661545937984,-1.0595,-0.0834,0.3958,-2.5,-2.87,-3.62,
89305,1661545937985,-1.019,-0.1512,-0.1706,-5.99,-7.86,-6.35,
89306,1661545937986,-1.1327,-0.1058,0.3318,-5.78,-4.89,-8.91,
89307,1661545937986,-1.1527,-0.2816,0.3987,-5.52,-4.98,-8.0,
89308,1661545937986,-1.0995,-0.4242,0.0501,-10.89,-0.16,-10.91,
89309,1661545937986,-1.143,-0.1937,0.073,-13.5,1.45,-4.63,
89310,1661545937987,-1.2309,-0.3797,0.1912,-12.68,1.63,-5.73,
89311,1661545937987,-1.0082,-0.3148,-0.0251,-13.19,-2.35,0.39,
89312,1661545937987,-1.203,-0.3021,0.1433,-15.3,-7.34,-0.06,
89313,1661545937989,-1.0722,-0.3651,0.2044,-19.07,-11.91,-0.43,
89314,1661545937989,-1.1415,-0.1493,0.3328,-20.88,4.24,-3.89,
89315,1661545937990,-1.0785,-0.0653,0.114,-18.2,10.42,-0.98,
89316,1661545937990,-1.2294,-0.1952,0.22,-15.01,7.46,-1.16,
89317,1661545937990,-1.0492,-0.1625,0.4636,-15.59,12.78,-0.71,
89318,1661545937990,-1.1864,-0.0438,0.053,-13.09,0.09,-1.8,
89319,1661545937992,-1.0312,0.0143,-0.2639,-15.39,8.8,-2.61,
89320,1661545937992,-1.206,0.1266,0.3689,-15.3,17.35,-2.35,
89321,1661545937992,-1.0121,-0.0712,-0.0276,-17.51,8.05,0.85,
89322,1661545937992,-1.0297,0.025,-0.4216,-19.59,-8.27,-3.07,
89323,1661545937993,-1.038,0.193,0.282,-19.28,-7.33,-3.8,
89324,1661545937993,-1.1601,-0.0038,0.3318,-12.9,-5.48,-3.35,
89325,1661545937993,-1.1283,-0.0101,0.156,-14.99,0.61,-3.07,
89326,1661545937994,-1.0644,0.1007,-0.0061,-18.4,2.54,-0.34,
89327,1661545937994,-0.9941,0.0954,0.3357,-15.3,14.9,-1.53,
89328,1661545937995,-1.059,0.0778,0.3118,-13.8,8.63,1.66,
89329,1661545937995,-1.0087,0.091,0.0242,-16.8,6.6,0.94,
89330,1661545937997,-0.8749,0.0954,0.0208,-15.28,-0.23,-1.35,
89331,1661545937997,-0.9721,0.111,0.157,-12.11,3.98,0.3,
89332,1661545937997,-0.9989,0.1549,0.0066,-10.6,1.37,-1.8,
89333,1661545937997,-0.7387,0.1046,-0.2756,-11.47,6.28,5.95,
89334,1661545937998,-0.9662,0.1437,0.1609,-10.69,7.96,7.23,
89335,1661545937998,-0.8041,0.254,0.0945,-9.39,9.99,5.14,
89336,1661545937998,-0.8188,0.2638,-0.1716,-9.09,-0.58,3.4,
89337,1661545937999,-0.872,0.3859,0.1487,-8.42,11.35,9.32,
89338,1661545937999,-1.0248,0.2492,0.2088,-4.8,-3.62,6.77,
89339,1661545938000,-0.9208,0.2311,0.0032,-3.31,8.05,10.97,
89340,1661545938000,-0.8442,0.4938,0.0867,-4.89,7.29,6.13,
89341,1661545938002,-0.8876,0.4596,0.0305,-5.4,17.18,4.5,
89342,1661545938002,-0.6942,0.4279,-0.1672,-3.4,14.39,6.22,
89343,1661545938002,-0.769,0.4376,-0.4114,-0.91,8.05,4.04,
89344,1661545938002,-0.8466,0.4162,-0.2185,-3.2,-3.54,-0.43,
89345,1661545938003,-0.913,0.5231,-0.2004,-3.6,-16.56,-0.89,
89346,1661545938003,-0.8173,0.4874,-0.1306,-3.09,-12.67,0.94,
89347,1661545938003,-0.8271,0.4904,-0.1369,-1.48,-11.14,1.75,
89348,1661545938004,-0.8119,0.3507,-0.135,0.22,-2.51,3.4,
89349,1661545938004,-0.8661,0.2218,0.0452,2.22,0.19,-3.62,
89350,1661545938005,-0.8847,0.3209,0.1062,3.19,-1.25,-5.91,
89351,1661545938005,-0.8808,0.0734,-0.0158,2.8,-9.13,-1.99,
89352,1661545938006,-0.9692,-0.0287,0.0027,-0.59,-3.53,-1.53,
89353,1661545938006,-0.8671,0.0006,-0.0783,-1.4,3.23,-5.91,
89354,1661545938006,-1.0365,-0.0677,-0.0193,-1.99,7.7,-4.35,
89355,1661545938008,-1.0307,-0.0345,-0.0549,-1.7,0.94,-1.44,
89356,1661545938008,-1.1317,-0.3133,-0.0271,-3.51,-11.49,0.3,
89357,1661545938008,-1.0678,-0.1551,0.1765,-4.6,-5.41,-2.7,
89358,1661545938009,-1.0312,-0.1849,-0.1076,-6.8,-7.34,-0.52,
89359,1661545938009,-1.1088,-0.3212,0.1028,-10.3,5.67,-1.16,
89360,1661545938009,-1.1337,-0.1874,0.3718,-11.5,2.64,1.22,
89361,1661545938010,-1.1298,-0.1546,-0.0139,-9.59,5.26,-3.62,
89362,1661545938010,-1.0692,-0.0287,0.093,-12.0,3.57,-6.09,
89363,1661545938010,-1.1376,0.1144,0.0589,-11.91,5.34,-3.53,
89364,1661545938011,-1.0258,-0.0575,-0.3044,-13.18,-1.16,-4.54,
89365,1661545938011,-1.0922,0.0846,-0.0666,-11.38,-1.24,-0.43,
89366,1661545938012,-1.1283,0.0519,-0.009,-11.29,-11.14,-6.27,
89367,1661545938013,-1.0844,0.088,-0.1013,-15.61,-14.88,-3.25,
89368,1661545938013,-1.058,0.1481,-0.0124,-14.69,-11.4,-6.44,
89369,1661545938014,-1.1264,-0.0614,0.1819,-11.56,-1.0,-6.53,
89370,1661545938014,-1.1366,-0.0809,0.2678,-12.98,0.29,-10.55,
89371,1661545938015,-1.1864,-0.0126,0.2229,-16.78,0.45,-8.91,
89372,1661545938015,-1.204,-0.3163,0.2737,-13.91,2.38,-9.92,
89373,1661545938017,-1.2626,-0.327,0.4583,-16.0,11.59,-1.8,
89374,1661545938017,-1.1772,-0.2738,0.1707,-17.89,8.13,-3.53,
89375,1661545938017,-1.0873,-0.2591,0.0315,-16.6,4.5,2.3,
89376,1661545938017,-1.1567,-0.3133,0.2634,-17.59,4.5,0.39,
89377,1661545938017,-1.0927,-0.3421,0.1653,-15.99,-2.44,8.97,
89378,1661545938019,-1.1703,-0.2591,0.1643,-18.69,5.17,4.59,
89379,1661545938019,-1.1552,0.0138,0.3333,-19.4,7.79,8.14,
89380,1661545938020,-1.0185,-0.0751,0.1253,-22.06,7.64,8.05,
89381,1661545938020,-0.9526,0.2511,0.2537,-22.29,6.86,5.05,
89382,1661545938020,-1.0151,0.3009,0.2434,-19.08,6.27,10.51,
89383,1661545938020,-1.0058,0.0558,0.0423,-14.09,15.65,8.97,
89384,1661545938020,-0.9984,0.4489,0.2268,-11.01,16.08,11.52,
89385,1661545938021,-0.8573,0.507,-0.0583,-14.31,12.02,11.52,
89386,1661545938022,-0.7914,0.3644,-0.4211,-12.69,-0.66,5.32,
89387,1661545938022,-0.8232,0.5114,-0.0246,-9.99,5.43,9.32,
89388,1661545938023,-0.8754,0.5153,-0.1101,-10.19,-1.76,6.13,
89389,1661545938023,-0.8808,0.4362,-0.2322,-10.78,-2.67,3.86,
89390,1661545938023,-0.8998,0.3942,-0.0095,-6.39,-4.12,4.22,
89391,1661545938024,-0.9233,0.2623,0.1409,-4.5,2.64,7.87,
89392,1661545938024,-0.871,0.3468,0.0149,-2.8,2.71,5.05,
89393,1661545938025,-0.9115,0.2487,0.0735,-2.48,6.71,3.12,
89394,1661545938025,-0.8964,0.13,0.1487,-2.48,11.27,5.67,
89395,1661545938026,-0.8456,0.1149,0.0965,-5.6,5.67,4.31,
89396,1661545938026,-0.9384,0.1007,-0.1199,-6.5,0.44,1.93,
89397,1661545938027,-0.8988,0.1032,-0.0842,-3.9,-3.04,2.48,
89398,1661545938027,-0.7572,0.1383,-0.0139,-3.2,2.71,2.85,
89399,1661545938027,-0.9052,0.1769,-0.1833,-3.9,-3.21,7.32,
89400,1661545938028,-0.8778,0.1022,-0.2556,-4.41,-2.78,4.31,
89401,1661545938028,-0.9716,0.1359,0.0803,-6.31,0.35,4.86,
89402,1661545938029,-0.8075,0.4254,0.0926,-6.19,2.38,1.84,
89403,1661545938029,-0.828,0.4435,0.032,-4.12,8.3,4.41,
89404,1661545938030,-0.8398,0.3121,-0.112,2.0,12.86,3.58,
