srNo,timestamp,ax,ay,az,gx,gy,gz,temp
0,1661544200247,-0.7957,0.2181,-0.1947,26.64,-17.5,3.74,
1,1661544200248,-0.806,0.1825,0.1104,29.24,-7.42,5.73,
2,1661544200248,-0.7772,0.2791,-0.0116,36.35,-1.0,3.1,
3,1661544200248,-0.7254,0.057,-0.4281,37.23,-3.37,3.64,
4,1661544200248,-0.7776,0.0199,-0.1747,33.45,11.1,1.36,
5,1661544200248,-0.8953,0.4461,0.1788,31.65,-1.5,-0.0,
6,1661544200248,-0.8685,0.1561,-0.4521,33.56,-16.23,-1.83,
7,1661544200248,-0.9818,-0.068,-0.2167,33.36,-15.21,-1.01,
8,1661544200248,-0.8943,0.3421,0.1851,31.54,-7.09,-0.92,
9,1661544200248,-0.9549,0.1195,-0.2777,31.04,-15.54,-2.38,
10,1661544200248,-1.0604,0.0892,-0.0976,34.55,-15.54,-5.3,
11,1661544200248,-0.9861,-0.0661,0.2569,34.96,-13.01,-5.21,
12,1661544200248,-1.0687,-0.026,0.0387,28.95,-11.24,-6.75,
13,1661544200249,-1.0916,-0.049,-0.059,25.57,-6.48,-5.02,
14,1661544200249,-1.1317,-0.2248,0.1202,24.14,-10.14,-2.55,
15,1661544200249,-1.0223,-0.0529,0.2765,25.65,-14.11,-1.83,
16,1661544200249,-1.2132,-0.1476,0.0396,25.76,-13.35,-4.02,
17,1661544200249,-1.22,-0.3073,0.044,24.66,-10.31,-1.56,
18,1661544200249,-1.2093,-0.0544,0.4552,24.14,-2.1,-3.47,
19,1661544200249,-1.3055,-0.1369,0.1583,19.85,-9.97,3.92,
20,1661544200249,-1.242,-0.1984,0.0743,18.86,-18.85,3.1,
21,1661544200249,-1.3118,0.1239,0.8184,17.29,0.62,2.91,
22,1661544200249,-1.2537,0.1117,0.5631,18.36,-9.38,2.73,
23,1661544200249,-1.3123,-0.0519,-0.1332,22.45,2.97,4.19,
24,1661544200249,-1.3011,0.0951,0.566,20.94,10.58,7.11,
25,1661544200249,-1.2269,0.2123,0.3619,16.25,6.78,1.19,
26,1661544200249,-1.1292,0.264,-0.0326,15.58,5.03,-0.0,
27,1661544200250,-1.2176,0.3768,-0.1957,15.64,-0.57,-0.83,
28,1661544200250,-1.1776,0.181,0.2584,21.13,-2.44,-0.09,
29,1661544200250,-1.2567,0.3138,0.0645,20.26,-5.32,2.27,
30,1661544200250,-1.0818,0.556,-0.1083,20.84,-7.09,-0.37,
31,1661544200250,-1.1194,0.2601,0.254,18.56,5.42,0.73,
32,1661544200250,-1.138,0.2743,0.3726,17.95,11.1,1.0,
33,1661544200250,-1.1014,0.4071,0.107,16.74,1.29,-6.56,
34,1661544200250,-1.0735,0.2689,0.1397,18.56,-0.33,-1.65,
35,1661544200250,-1.157,0.2591,0.4293,20.55,0.27,-4.84,
36,1661544200251,-1.0672,0.2318,0.2955,23.96,-3.53,-1.56,
37,1661544200251,-0.9881,0.1302,0.0269,19.36,-2.53,-2.83,
38,1661544200251,-1.0062,0.3143,0.235,16.95,4.75,-1.01,
39,1661544200251,-0.9534,0.1873,0.0069,17.85,1.2,-5.94,
40,1661544200251,-0.845,0.1654,-0.1444,19.35,0.43,-1.47,
41,1661544200251,-0.8851,0.2904,0.0724,21.76,10.0,-1.83,
42,1661544200251,-0.9383,0.1581,0.1764,25.85,-7.94,-0.55,
43,1661544200251,-0.8167,0.0824,-0.0507,20.54,-11.15,2.73,
44,1661544200251,-0.7186,0.6981,0.106,24.05,-14.87,0.18,
45,1661544200251,-0.9061,0.1585,-0.0541,25.35,3.73,3.1,
46,1661544200251,-0.7757,0.1498,-0.0058,29.25,22.09,3.64,
47,1661544200251,-0.7493,0.5008,-0.0419,33.63,20.91,3.37,
48,1661544200251,-0.6942,0.6546,0.0333,26.35,13.63,2.0,
49,1661544200251,-0.6673,0.4212,-0.4164,25.94,-10.22,-0.92,
50,1661544200251,-0.5545,0.1527,-0.3798,29.65,-5.32,6.47,
51,1661544200252,-0.6541,0.6507,-0.0839,28.15,-0.24,-3.19,
52,1661544200252,-0.6302,0.6581,-0.5902,33.14,-2.02,-3.37,
53,1661544200252,-0.7181,0.244,-0.5375,34.15,-3.37,-4.11,
54,1661544200252,-0.8255,0.243,0.0704,31.65,-12.0,-3.19,
55,1661544200252,-0.7249,0.5326,-0.1479,34.46,-25.19,-4.11,
56,1661544200252,-0.7689,0.0789,-0.3275,38.65,-10.9,-2.38,
57,1661544200252,-0.8152,0.1322,0.2018,32.65,-0.83,-2.38,
58,1661544200252,-0.8245,-0.0524,0.0401,30.14,-3.46,0.36,
59,1661544200252,-0.8548,-0.0436,-0.2484,32.46,-14.54,-3.28,
60,1661544200252,-0.8934,-0.2775,0.0929,34.55,-13.1,1.45,
61,1661544200252,-0.9759,-0.2711,0.2091,29.56,-8.95,0.36,
62,1661544200252,-0.886,0.0121,-0.2587,29.65,-15.13,0.18,
63,1661544200252,-1.0662,-0.3698,-0.123,30.93,-1.67,1.45,
64,1661544200252,-1.0257,-0.3878,0.3214,28.55,-6.25,3.55,
65,1661544200252,-0.9603,0.1205,-0.0141,20.54,-14.79,5.02,
66,1661544200252,-1.0223,-0.1027,-0.1537,23.74,-22.91,3.1,
67,1661544200253,-1.157,-0.237,0.2999,27.47,-2.01,3.19,
68,1661544200253,-1.0472,-0.0876,0.3697,26.15,1.96,-0.19,
69,1661544200253,-1.0872,0.1834,-0.099,26.86,-1.84,-2.55,
70,1661544200253,-1.1854,0.0843,0.0636,25.85,-0.74,-2.73,
71,1661544200253,-1.178,-0.0461,0.3834,26.66,0.77,3.64,
72,1661544200254,-1.1253,0.2152,-0.0868,22.05,-12.67,2.18,
73,1661544200254,-1.2259,0.2694,-0.1132,22.93,-19.95,2.18,
74,1661544200254,-1.2029,0.1371,0.1783,24.86,-6.66,1.19,
75,1661544200254,-1.2352,0.0882,0.4659,25.38,-2.85,2.18,
76,1661544200254,-1.2513,0.2694,0.0792,19.96,-3.87,0.18,
77,1661544200254,-1.2645,0.0599,0.1358,21.96,-0.16,-4.2,
78,1661544200254,-1.2108,0.037,0.4601,18.97,-1.41,-4.29,
79,1661544200254,-1.2044,0.0829,0.3726,20.75,-9.04,-2.92,
80,1661544200254,-1.2371,0.1009,0.0157,17.95,-7.26,-3.56,
81,1661544200254,-1.2337,-0.0109,0.2061,17.76,0.94,-3.56,
82,1661544200254,-1.1776,-0.0085,0.4146,19.56,13.37,0.64,
83,1661544200254,-1.1907,0.1761,-0.0463,17.55,3.23,-5.57,
84,1661544200254,-1.0452,-0.0382,-0.0399,14.66,-10.9,-1.47,
85,1661544200254,-1.282,0.0501,0.5948,17.14,-0.24,-2.55,
86,1661544200254,-1.1985,0.1288,0.4527,18.86,-5.56,1.72,
87,1661544200254,-1.2225,0.0829,-0.0233,16.27,-5.06,-0.0,
88,1661544200255,-1.1321,0.2821,0.6212,15.64,10.17,-4.75,
89,1661544200255,-1.1024,0.2367,0.2262,14.68,7.8,0.55,
90,1661544200255,-0.9339,0.4403,-0.0024,17.76,14.73,-5.39,
91,1661544200255,-1.0467,0.5121,0.0797,18.85,6.69,-0.28,
92,1661544200255,-0.9725,0.3304,0.1236,21.44,7.45,-2.73,
93,1661544200255,-0.9759,0.4398,-0.059,24.16,1.87,0.46,
94,1661544200255,-0.9593,0.6952,-0.1547,24.75,2.55,-3.83,
95,1661544200255,-0.8768,0.4403,-0.0639,24.25,-5.15,-6.93,
96,1661544200255,-0.89,0.4706,0.0011,23.56,0.52,-1.28,
97,1661544200255,-0.8026,0.6541,-0.1059,23.15,-5.73,-9.13,
98,1661544200255,-0.8079,0.4359,-0.1566,27.74,-1.0,-5.3,
99,1661544200255,-0.8484,0.4032,0.2071,33.56,0.86,-7.57,
100,1661544200255,-0.8367,0.3373,0.025,31.05,0.69,-9.22,
101,1661544200255,-0.7562,0.2464,-0.1757,30.93,-1.09,-0.73,
102,1661544200255,-0.7337,0.2494,-0.0526,27.96,2.72,-5.57,
103,1661544200255,-0.7274,0.139,-0.1274,25.96,-0.07,-0.09,
104,1661544200256,-0.6976,0.0819,-0.3315,29.65,-0.91,-0.28,
105,1661544200256,-0.8079,0.1834,-0.0941,31.05,0.52,-2.02,
106,1661544200256,-0.6517,-0.0246,-0.1825,32.84,-10.81,4.74,
107,1661544200256,-0.888,-0.0524,-0.0185,27.25,-11.48,-0.83,
108,1661544200256,-0.722,0.1092,-0.1435,28.35,-16.14,0.27,
109,1661544200256,-0.7425,0.0438,-0.1191,29.95,5.18,-0.64,
110,1661544200256,-0.7615,0.2904,0.2306,30.75,12.27,1.72,
111,1661544200256,-0.7786,0.078,-0.2201,34.04,3.65,1.0,
112,1661544200256,-0.7718,-0.0124,-0.0121,33.83,5.42,7.66,
113,1661544200256,-0.9051,0.3768,0.0587,30.75,-9.12,4.38,
114,1661544200256,-0.8372,0.2948,-0.2519,32.15,-13.86,6.93,
115,1661544200256,-0.8953,-0.071,-0.4648,33.05,-10.31,5.37,
116,1661544200256,-0.9031,0.2284,-0.0316,31.74,-2.44,4.74,
117,1661544200256,-0.9095,0.1312,-0.1991,30.95,-15.97,4.56,
118,1661544200256,-0.9647,0.2323,-0.2411,34.84,-19.36,1.0,
119,1661544200256,-0.9891,0.0067,0.1187,31.34,-19.02,2.09,
120,1661544200257,-0.9866,0.0008,0.233,25.25,-6.75,1.54,
121,1661544200257,-1.015,0.1268,0.0997,26.73,-3.37,0.46,
122,1661544200257,-1.0447,-0.049,-0.0732,26.54,-6.42,-1.28,
123,1661544200257,-1.012,-0.0758,0.2682,25.36,-6.59,0.46,
124,1661544200257,-1.1492,0.0228,0.2242,26.15,-8.45,-1.74,
125,1661544200257,-1.1507,-0.2892,-0.2484,31.45,-16.9,-2.73,
126,1661544200257,-1.1541,-0.0944,0.2306,22.75,-9.38,-3.92,
127,1661544200257,-1.3265,-0.1242,0.2066,18.66,-9.29,-3.56,
128,1661544200257,-1.1531,-0.297,-0.1088,18.85,-20.46,-0.73,
129,1661544200257,-1.2933,-0.1574,0.2813,18.28,-6.31,-4.38,
130,1661544200257,-1.2366,0.076,0.7047,18.56,-1.09,-1.19,
131,1661544200257,-1.3099,-0.0983,0.0914,20.55,3.82,-2.73,
132,1661544200257,-1.2606,0.1185,0.4308,19.76,6.52,-2.73,
133,1661544200257,-1.2615,0.0755,0.5079,18.56,4.32,1.0,
134,1661544200257,-1.1971,0.0907,0.3448,16.04,7.28,2.0,
135,1661544200257,-1.2049,0.4647,-0.0541,16.27,-0.57,-1.83,
136,1661544200257,-1.1683,0.1473,0.0157,16.27,0.1,-2.73,
137,1661544200258,-1.2025,0.2918,0.1539,19.64,-1.76,-2.47,
138,1661544200258,-1.0853,0.5457,-0.1708,22.46,-5.82,-6.66,
139,1661544200258,-1.0862,0.3534,-0.1967,24.66,-3.29,-4.38,
140,1661544200258,-1.1522,0.3719,0.2457,18.54,5.42,-4.66,
141,1661544200258,-1.0731,0.4574,0.1231,16.66,-3.79,-7.57,
142,1661544200258,-1.0823,0.2655,0.068,19.35,-0.5,-2.83,
143,1661544200258,-1.1585,0.412,0.4356,21.65,0.43,-10.85,
144,1661544200258,-1.1092,0.1297,0.1705,24.26,-0.24,-5.75,
145,1661544200258,-1.032,0.1068,0.171,21.44,2.8,-8.49,
146,1661544200258,-1.0374,0.4012,0.2745,20.16,7.97,-5.3,
147,1661544200258,-0.9861,0.1678,0.0318,22.93,3.32,0.18,
148,1661544200258,-0.867,0.2723,-0.0717,21.94,2.72,-4.84,
149,1661544200258,-1.0394,0.3075,0.1812,23.26,5.18,-0.83,
150,1661544200258,-0.9881,0.0912,0.1031,28.14,-4.46,-3.28,
151,1661544200258,-0.9251,-0.007,0.045,28.35,-4.56,3.92,
152,1661544200258,-0.8343,0.4754,0.1412,20.16,-8.11,-3.56,
153,1661544200258,-0.8026,0.3172,0.1373,24.34,-1.09,3.19,
154,1661544200258,-0.8367,0.0985,0.0221,28.64,16.0,-0.0,
155,1661544200258,-0.7488,0.1029,-0.1459,28.73,9.82,2.27,
156,1661544200258,-0.8592,0.3846,0.0977,27.56,15.4,1.91,
157,1661544200258,-0.8021,0.764,-0.0214,31.16,-3.2,-6.21,
158,1661544200259,-0.6414,-0.029,-0.6776,32.53,-7.85,-0.37,
159,1661544200259,-0.7239,0.4325,-0.1855,26.64,0.27,-1.19,
160,1661544200259,-0.7088,0.7484,-0.3583,26.95,-5.32,-5.3,
161,1661544200259,-0.6639,0.4466,-0.5497,35.45,-8.69,-4.75,
162,1661544200259,-0.8411,0.2645,-0.2113,36.26,-6.66,-6.4,
163,1661544200259,-0.7405,0.4764,-0.0312,36.15,-15.13,-8.3,
164,1661544200259,-0.7718,0.2186,-0.2255,36.84,-14.11,-7.3,
165,1661544200259,-0.847,0.3031,0.046,35.83,-7.68,-6.66,
166,1661544200259,-0.8431,-0.0627,0.0064,35.75,-2.6,-3.19,
167,1661544200259,-0.8338,0.0018,-0.0844,34.35,-1.93,-4.11,
168,1661544200259,-0.8748,-0.2257,-0.0644,34.85,-7.76,-2.02,
169,1661544200259,-0.973,-0.3405,0.0167,28.95,-11.48,-2.11,
170,1661544200259,-0.8709,0.0706,-0.1103,28.05,-16.47,-6.84,
171,1661544200259,-1.0394,-0.2814,-0.246,30.34,-10.05,-0.73,
172,1661544200259,-1.0594,-0.5461,0.0841,29.76,-9.38,1.45,
173,1661544200259,-0.992,0.0272,0.2589,24.45,-10.05,1.1,
174,1661544200259,-0.9573,-0.0109,-0.1864,24.05,-21.89,1.45,
175,1661544200260,-1.1336,-0.2511,0.1358,26.84,-6.25,6.74,
176,1661544200260,-1.1038,-0.07,0.3653,27.96,1.96,5.73,
177,1661544200261,-1.0306,0.0145,0.0636,24.37,-4.21,0.09,
178,1661544200261,-1.1468,0.159,-0.0707,23.36,0.6,1.28,
179,1661544200261,-1.199,-0.0192,0.2652,21.85,-1.0,-1.01,
180,1661544200262,-1.1082,0.0331,0.0167,23.47,-6.57,4.1,
181,1661544200262,-1.1536,0.3827,-0.1845,24.64,-14.28,-0.55,
182,1661544200263,-1.1771,0.2718,-0.1005,25.54,-8.95,-0.09,
183,1661544200263,-1.2059,0.0482,0.3111,22.03,-5.32,-3.19,
184,1661544200264,-1.2899,0.2664,0.3868,17.95,-9.21,-1.28,
185,1661544200264,-1.2816,0.1776,0.0733,19.44,-12.67,-0.83,
186,1661544200265,-1.1883,0.1512,0.4351,20.05,-3.29,-1.38,
187,1661544200265,-1.2176,0.1952,0.3819,21.85,1.2,-2.73,
188,1661544200265,-1.199,0.14,0.1397,22.46,3.56,3.37,
189,1661544200266,-1.2195,0.0921,0.0733,21.65,9.41,-3.28,
190,1661544200266,-1.1663,0.0882,0.3878,19.46,13.2,-2.92,
191,1661544200267,-1.1883,0.0941,0.046,17.14,-2.95,-2.92,
192,1661544200267,-1.0457,0.1288,-0.1547,15.95,-12.08,-2.11,
193,1661544200268,-1.2391,0.0062,0.359,15.76,-5.73,4.1,
194,1661544200268,-1.1854,0.0033,0.3702,22.55,-3.29,-0.73,
195,1661544200269,-1.1424,0.1331,0.0675,20.14,-5.06,-0.46,
196,1661544200269,-1.1097,0.2801,0.4898,18.36,8.31,0.18,
197,1661544200270,-1.0921,0.1966,0.4723,18.27,10.34,-3.47,
198,1661544200270,-1.0999,0.1463,0.2389,15.46,12.78,-2.55,
199,1661544200271,-1.0091,0.5164,0.0724,19.24,4.08,-5.75,
200,1661544200271,-1.0335,0.2645,0.2618,22.14,8.55,2.45,
201,1661544200271,-0.9842,0.4071,0.0597,23.16,-0.91,-1.1,
202,1661544200272,-0.93,0.5609,-0.2616,27.15,2.05,-4.93,
203,1661544200272,-0.9525,0.5663,-0.2299,26.66,5.94,-4.56,
204,1661544200273,-0.9329,0.5731,-0.0668,20.45,1.03,-9.4,
205,1661544200273,-0.8011,0.4554,-0.1752,21.74,-8.02,-1.47,
206,1661544200274,-0.8275,0.5438,-0.1508,29.04,-11.32,-3.92,
207,1661544200274,-0.8113,0.4769,0.1358,33.84,-5.15,-5.85,
208,1661544200275,-0.8123,0.3441,0.0885,32.55,6.52,-4.93,
209,1661544200275,-0.8231,0.3753,0.0157,32.33,11.01,-5.11,
210,1661544200275,-0.8069,0.3148,0.0528,31.05,6.69,-1.74,
211,1661544200276,-0.7884,0.1585,-0.0985,29.44,-0.57,-1.74,
212,1661544200276,-0.7142,0.1483,-0.3241,31.45,-5.15,0.73,
213,1661544200277,-0.7737,0.1429,-0.1874,33.43,2.72,3.74,
214,1661544200277,-0.6912,0.098,-0.2812,35.14,-5.65,0.55,
215,1661544200278,-0.7029,-0.008,-0.2929,34.96,-2.95,3.37,
216,1661544200278,-0.8973,-0.0495,-0.1151,33.04,-8.78,-0.19,
217,1661544200279,-0.7669,0.1112,-0.14,28.86,-20.12,8.76,
218,1661544200279,-0.7747,0.0511,0.1197,26.95,-6.66,4.1,
219,1661544200280,-0.7342,0.0824,-0.0683,34.73,-4.72,4.47,
220,1661544200280,-0.7899,-0.1281,-0.0473,37.55,6.86,4.47,
221,1661544200281,-0.8963,0.0711,0.0714,38.56,1.81,1.81,
222,1661544200281,-0.9466,0.2332,0.1168,31.85,5.76,1.54,
223,1661544200282,-0.8973,-0.0358,-0.2611,31.95,-4.98,2.18,
224,1661544200282,-0.8987,0.0282,-0.2773,29.56,-6.83,-0.37,
225,1661544200282,-0.8948,0.1834,-0.0336,28.53,-8.78,-0.83,
226,1661544200283,-0.9583,0.1991,-0.2753,31.07,-13.09,-4.2,
227,1661544200283,-0.9559,0.1722,-0.31,32.73,-16.4,2.0,
228,1661544200284,-1.0091,0.0497,-0.0058,28.66,-13.51,-2.47,
229,1661544200284,-0.9959,0.1644,0.1476,28.14,-11.41,-1.28,
230,1661544200285,-1.0291,0.1185,-0.1269,29.66,-9.96,-6.84,
231,1661544200285,-1.032,-0.0241,0.1017,26.75,-8.62,-5.48,
232,1661544200286,-1.1004,0.0316,0.3165,25.45,-4.13,-7.85,
233,1661544200286,-1.1478,-0.1403,-0.0673,28.75,-12.17,-3.1,
234,1661544200287,-1.1644,-0.1105,0.1729,29.18,-9.36,-3.01,
235,1661544200287,-1.2318,-0.0714,0.3941,22.36,-9.45,-1.65,
236,1661544200287,-1.1995,-0.1969,0.0924,18.16,-15.8,0.55,
237,1661544200288,-1.1927,-0.2545,0.0719,18.86,-4.63,0.55,
238,1661544200288,-1.2176,0.0594,0.5499,18.95,-3.53,-0.0,
239,1661544200289,-1.2776,-0.0641,0.2452,19.24,-7.94,2.36,
240,1661544200289,-1.2757,-0.0158,0.3028,21.06,-3.96,1.72,
241,1661544200290,-1.2347,0.0057,0.3995,17.96,-4.63,1.91,
242,1661544200290,-1.244,0.0272,0.4117,14.47,8.9,1.36,
243,1661544200291,-1.1727,0.3705,0.0377,19.04,2.05,-0.09,
244,1661544200291,-1.2029,0.1205,0.0719,19.04,13.54,1.72,
245,1661544200292,-1.1976,0.2513,0.3453,19.44,11.43,-0.83,
246,1661544200292,-1.1873,0.4554,0.1168,16.56,-1.6,0.18,
247,1661544200292,-1.0418,0.4139,-0.1864,20.66,-8.52,2.18,
248,1661544200293,-1.1932,0.2953,0.1993,19.55,-9.12,0.73,
249,1661544200293,-1.0526,0.3753,0.1744,16.56,-8.36,-0.28,
250,1661544200294,-1.0867,0.3841,0.1124,19.85,-0.67,-3.1,
251,1661544200294,-1.0779,0.5335,0.273,20.74,5.76,-5.48,
252,1661544200295,-1.0872,0.4046,0.252,24.45,5.51,-6.12,
253,1661544200295,-1.0364,0.2044,0.1974,21.65,9.41,0.73,
254,1661544200295,-1.0501,0.4637,0.2574,21.56,3.99,-0.19,
255,1661544200296,-0.994,0.4051,0.1202,23.76,-2.27,0.09,
256,1661544200296,-0.9266,0.181,-0.0775,23.45,-10.14,1.81,
257,1661544200297,-0.9022,0.4115,0.0206,24.26,-4.8,-1.01,
258,1661544200297,-0.9852,0.1268,0.0318,28.24,-2.27,1.54,
259,1661544200298,-0.9266,0.0638,0.0387,29.76,3.15,0.27,
260,1661544200298,-1.0023,0.1698,0.0982,27.04,6.61,-2.02,
261,1661544200299,-0.7884,0.2308,0.0372,26.55,-1.67,-3.19,
262,1661544200299,-0.8006,0.2337,0.2037,24.84,4.92,-5.85,
263,1661544200299,-0.7957,0.1537,0.1446,29.56,1.87,2.0,
264,1661544200301,-0.7864,0.161,-0.1396,29.25,-1.5,1.91,
265,1661544200301,-0.9178,0.4178,0.0841,26.35,8.22,-2.2,
266,1661544200301,-0.7855,0.5711,-0.0282,31.45,-0.91,3.83,
267,1661544200301,-0.6883,-0.1149,-0.3954,30.55,8.81,2.0,
268,1661544200302,-0.7264,0.5794,-0.3422,30.66,2.55,-2.64,
269,1661544200302,-0.6502,0.5702,-0.4115,31.75,2.39,-0.09,
270,1661544200303,-0.7059,0.4281,-0.3441,38.83,-1.34,-0.73,
271,1661544200303,-0.8372,0.3329,-0.2274,36.27,-10.46,1.91,
272,1661544200304,-0.7215,0.2689,-0.2128,32.64,-20.03,-2.47,
273,1661544200304,-0.7918,0.452,-0.0468,36.24,-12.41,-8.12,
274,1661544200305,-0.866,0.2015,-0.0434,43.44,-4.39,-9.68,
275,1661544200305,-0.8558,-0.0744,0.0416,34.33,4.25,-4.38,
276,1661544200306,-0.888,0.0746,0.1305,30.85,-1.93,-8.3,
277,1661544200306,-0.9578,-0.2443,-0.1449,30.67,-6.65,-2.73,
278,1661544200307,-0.89,-0.2604,-0.1493,33.94,-8.62,-7.75,
279,1661544200307,-0.8235,0.0101,0.0724,30.44,-10.55,0.64,
280,1661544200308,-1.0589,-0.3571,-0.1059,30.06,-19.86,-6.4,
281,1661544200308,-0.9803,-0.3551,-0.1566,29.85,-17.16,3.19,
282,1661544200308,-1.0555,-0.0768,0.2101,26.34,-2.77,-0.09,
283,1661544200309,-0.9002,-0.0973,-0.1786,26.03,-7.76,2.27,
284,1661544200309,-1.0569,-0.3009,0.0894,24.05,-2.6,2.45,
285,1661544200311,-1.0584,-0.1339,0.2872,24.26,-12.41,0.46,
286,1661544200311,-1.075,0.0238,0.1046,24.34,-12.84,-2.47,
287,1661544200311,-1.1336,0.1449,0.0362,28.66,1.2,-2.64,
288,1661544200311,-1.158,-0.0529,0.1715,27.65,7.71,0.09,
289,1661544200312,-1.0706,0.0965,0.1573,22.26,10.17,1.19,
290,1661544200312,-1.1531,0.3177,-0.1581,19.46,0.01,-3.92,
291,1661544200313,-1.0916,0.2831,-0.1669,22.16,-13.44,-2.2,
292,1661544200313,-1.1893,0.1219,0.3326,24.03,-13.86,-3.83,
293,1661544200313,-1.2405,0.2489,0.3033,23.64,-12.67,-2.55,
294,1661544200314,-1.1927,0.2025,-0.0668,23.45,-2.69,-3.28,
295,1661544200314,-1.179,0.3192,0.4254,17.26,8.22,-3.56,
296,1661544200315,-1.2259,0.1688,0.2682,18.95,1.62,-7.48,
297,1661544200315,-1.2093,0.0936,-0.0141,21.13,-8.36,-3.56,
298,1661544200316,-1.1937,0.1434,0.1681,20.94,-3.79,-5.11,
299,1661544200316,-1.1902,0.1795,0.3263,18.16,6.11,-6.56,
300,1661544200317,-1.1282,0.0799,-0.1024,18.27,0.52,-1.92,
301,1661544200317,-1.0789,0.1356,-0.0048,17.06,2.13,-2.55,
302,1661544200317,-1.1712,0.0233,0.2896,16.85,-5.56,4.1,
303,1661544200318,-1.1502,-0.0216,0.1891,19.85,-5.06,4.29,
304,1661544200318,-1.1732,0.1346,0.2193,19.35,-4.22,2.91,
305,1661544200319,-1.0423,0.1649,0.4898,21.74,2.8,3.64,
306,1661544200319,-1.0696,0.1375,0.421,18.54,3.39,2.91,
307,1661544200320,-1.0882,0.2464,0.2813,19.55,4.92,2.27,
308,1661544200320,-1.0027,0.3822,0.0875,20.04,7.45,-0.64,
309,1661544200321,-1.0018,0.2279,0.3106,21.24,20.22,-0.64,
310,1661544200321,-0.991,0.348,0.0309,25.36,9.74,2.36,
311,1661544200322,-0.9461,0.4383,-0.0976,24.66,9.15,0.55,
312,1661544200322,-0.8758,0.6727,-0.0419,24.46,-1.0,-6.84,
313,1661544200323,-0.8074,0.5702,-0.3319,25.96,-8.28,-2.83,
314,1661544200323,-0.8226,0.3382,-0.2504,24.74,-4.63,-6.12,
315,1661544200323,-0.8812,0.6478,0.0265,29.94,1.12,-2.47,
316,1661544200324,-0.8592,0.4417,-0.0566,33.84,-1.76,-7.2,
317,1661544200324,-0.8455,0.4344,-0.0717,33.23,-5.32,-7.02,
318,1661544200325,-0.7342,0.4725,0.0362,32.15,-1.43,-6.66,
319,1661544200325,-0.7327,0.2581,0.0968,31.95,5.76,-5.11,
320,1661544200326,-0.7459,0.2787,-0.1474,33.83,5.85,-5.39,
321,1661544200326,-0.7078,0.1854,-0.123,31.85,3.73,-2.11,
322,1661544200327,-0.7752,0.1615,-0.0165,32.15,-2.44,-2.11,
323,1661544200327,-0.6966,0.1239,-0.2279,35.83,-9.29,-1.47,
324,1661544200327,-0.763,-0.0338,-0.2548,35.34,-9.71,-1.38,
325,1661544200328,-0.8104,0.0692,-0.1513,31.54,-9.88,-2.64,
326,1661544200328,-0.8074,0.014,-0.0566,32.04,-5.82,0.18,
327,1661544200329,-0.8382,-0.0075,0.0045,33.14,-7.42,-0.64,
328,1661544200329,-0.8309,0.1507,-0.0502,35.77,-7.5,5.55,
329,1661544200330,-0.8323,-0.1247,-0.039,31.45,-5.73,-1.28,
330,1661544200330,-0.9173,0.0414,-0.019,34.64,-3.03,-0.73,
331,1661544200331,-0.9378,0.1156,0.1812,32.75,9.15,-2.02,
332,1661544200331,-0.9871,0.0248,-0.0732,30.46,-6.25,2.73,
333,1661544200332,-0.889,-0.0812,-0.3617,27.63,-8.19,3.74,
334,1661544200332,-0.9617,0.1825,0.0655,29.04,-5.65,1.19,
335,1661544200332,-0.9442,0.2831,-0.1732,30.55,-9.55,0.91,
336,1661544200333,-1.0135,0.0179,-0.2553,31.43,-15.3,1.0,
337,1661544200334,-1.0604,0.0018,-0.0116,25.65,-7.59,3.92,
338,1661544200334,-1.011,0.2191,0.2584,24.66,-14.61,-0.0,
339,1661544200334,-1.0286,0.1571,-0.0995,27.24,-15.47,1.19,
340,1661544200335,-1.0467,-0.008,0.0645,28.66,-9.71,2.82,
341,1661544200335,-1.0355,0.0106,0.234,27.44,-2.1,0.91,
342,1661544200336,-1.1077,-0.0421,0.0118,26.25,-11.58,-3.19,
343,1661544200336,-1.1942,-0.0885,0.0182,24.05,-10.98,-1.19,
344,1661544200337,-1.2401,-0.1593,0.2159,23.56,-11.41,-1.74,
345,1661544200337,-1.136,-0.172,0.1974,20.25,-6.42,-4.75,
346,1661544200338,-1.2996,-0.1335,0.1222,16.85,-5.32,-8.58,
347,1661544200338,-1.1712,-0.1652,0.2423,16.74,-9.45,-5.94,
348,1661544200339,-1.305,-0.0402,0.4879,19.27,-3.27,-8.58,
349,1661544200339,-1.2401,-0.0255,0.1617,19.75,-8.95,-3.56,
350,1661544200340,-1.303,-0.1657,0.38,16.85,8.22,-3.37,
351,1661544200340,-1.2083,0.119,0.5538,12.96,10.34,-6.21,
352,1661544200341,-1.1194,0.3402,-0.0097,12.96,-2.53,-8.94,
353,1661544200341,-1.1839,-0.0363,0.0113,19.15,9.91,-6.93,
354,1661544200341,-1.2513,0.3246,0.3072,21.64,8.64,-2.29,
355,1661544200342,-1.013,0.3534,-0.0082,20.74,9.82,-2.55,
356,1661544200342,-1.1619,0.3851,-0.1225,18.25,-1.43,1.28,
357,1661544200343,-1.076,0.4193,-0.0522,14.94,-7.01,-2.55,
358,1661544200343,-1.0071,0.1908,0.1827,17.95,-6.08,1.54,
359,1661544200344,-1.1234,0.6424,0.3648,20.26,-0.91,-3.92,
360,1661544200344,-1.1033,0.5404,-0.0097,21.24,-7.59,1.45,
361,1661544200345,-1.0467,0.2176,0.315,20.74,7.38,-2.55,
362,1661544200345,-0.9822,0.4417,0.4884,19.64,7.97,-8.03,
363,1661544200345,-0.952,0.4984,0.0167,23.76,10.0,-6.21,
364,1661544200346,-0.9354,0.2225,-0.1249,24.84,1.7,-7.3,
365,1661544200346,-0.9163,0.4862,0.2125,22.54,-3.03,-6.47,
366,1661544200347,-0.97,0.097,-0.143,23.26,-14.7,-5.57,
367,1661544200347,-0.887,0.2293,-0.1024,29.04,-3.96,-3.65,
368,1661544200348,-0.9398,0.3011,0.0553,28.57,6.03,-1.19,
369,1661544200348,-0.9031,0.0614,0.0025,26.14,0.27,0.09,
370,1661544200349,-0.7928,0.1932,-0.0902,23.36,-3.87,-8.21,
371,1661544200349,-0.8514,0.2469,0.358,27.85,2.22,-1.74,
372,1661544200349,-0.8392,0.0077,0.0392,31.74,-0.07,-2.83,
373,1661544200350,-0.8636,0.1541,-0.1352,29.85,5.76,-0.09,
374,1661544200350,-0.6658,0.4564,0.0147,29.24,10.5,-1.65,
375,1661544200351,-0.7982,0.1498,0.1441,29.45,16.76,-0.0,
376,1661544200351,-0.6468,0.3543,-0.4955,32.46,-3.2,-3.01,
377,1661544200352,-0.6849,0.39,-0.498,34.13,0.27,-3.1,
378,1661544200352,-0.8084,0.599,0.0982,35.54,4.25,-7.66,
379,1661544200353,-0.8748,0.4481,-0.1059,35.55,-10.22,-6.93,
380,1661544200353,-0.7259,0.0877,-0.5434,30.06,-18.69,-4.66,
381,1661544200354,-0.7718,0.4984,-0.0233,35.77,-14.43,-8.49,
382,1661544200354,-0.8035,0.3914,0.0133,46.05,-9.12,-7.2,
383,1661544200355,-0.8865,-0.0563,-0.1977,39.73,-2.69,-7.02,
384,1661544200355,-0.889,0.1537,0.2169,30.05,-3.96,-6.75,
385,1661544200356,-0.9695,-0.069,0.0431,28.75,-9.45,-5.21,
386,1661544200356,-0.9193,-0.0763,-0.2025,34.96,-10.98,-7.75,
387,1661544200357,-0.9466,-0.1593,-0.0019,31.56,-6.66,0.46,
388,1661544200357,-0.9944,-0.2526,0.086,28.46,-10.22,-5.3,
389,1661544200358,-1.0008,-0.2101,-0.1337,29.34,-12.41,2.82,
390,1661544200358,-1.1238,-0.2912,-0.0468,29.25,-9.12,4.1,
391,1661544200358,-0.8724,-0.069,0.0123,26.15,-9.21,2.64,
392,1661544200361,-1.0823,-0.1916,0.0621,19.26,-8.11,2.55,
393,1661544200361,-1.0716,-0.2912,0.068,22.57,-9.36,5.64,
394,1661544200361,-1.1497,0.0023,0.2608,22.74,-7.35,5.83,
395,1661544200361,-1.1448,0.1195,0.3043,23.36,-3.03,-3.01,
396,1661544200361,-1.1609,-0.0104,0.0045,27.05,-3.03,-1.38,
397,1661544200361,-1.159,-0.0461,0.2232,24.64,8.98,-3.01,
398,1661544200362,-1.1888,0.1654,0.151,21.04,-0.67,-4.84,
399,1661544200362,-1.0638,0.1771,-0.1606,20.37,-7.58,-3.19,
400,1661544200363,-1.2488,0.1664,0.2105,23.65,-7.42,-2.64,
401,1661544200363,-1.2562,0.1815,0.317,23.06,-9.45,-5.11,
402,1661544200364,-1.2147,0.1253,0.0499,22.46,-8.69,-6.12,
403,1661544200364,-1.2679,0.3558,0.2384,19.14,0.52,-5.94,
404,1661544200364,-1.2117,0.2918,0.2315,18.95,-7.35,-6.12,
405,1661544200365,-1.1893,0.0741,0.0982,17.76,-2.02,-3.01,
406,1661544200365,-1.1634,0.1693,0.1715,19.46,-3.96,-3.47,
407,1661544200366,-1.1614,0.2337,0.2174,20.86,5.01,-7.57,
408,1661544200366,-1.1351,0.1073,0.1407,22.95,5.01,-6.93,
409,1661544200367,-1.1063,0.1761,0.0738,16.86,5.59,-8.85,
410,1661544200367,-1.1351,0.0414,0.0787,16.94,-1.93,-1.83,
411,1661544200368,-1.0906,-0.007,0.1231,16.45,-7.26,-2.38,
412,1661544200368,-1.1927,0.1234,0.2271,19.14,-4.8,-1.38,
413,1661544200368,-1.1146,0.055,0.2364,21.15,-5.82,1.0,
414,1661544200369,-1.1468,0.1312,0.4737,19.15,-1.26,-3.28,
415,1661544200369,-1.0599,0.3226,0.3302,18.94,-1.0,-1.28,
416,1661544200370,-1.0496,0.2059,0.1827,18.56,2.72,0.18,
417,1661544200370,-1.0408,0.2533,0.3243,19.65,16.76,-3.1,
418,1661544200371,-0.9549,0.3006,0.1373,25.77,10.52,-1.01,
419,1661544200371,-0.9754,0.1727,0.0963,21.56,11.86,3.1,
420,1661544200371,-0.9427,0.7972,0.0294,23.85,1.53,-3.37,
421,1661544200372,-0.8387,0.7142,-0.2382,27.56,-6.75,-1.56,
422,1661544200372,-0.7767,0.2567,-0.394,26.46,0.01,-5.48,
423,1661544200373,-0.8812,0.5887,-0.0937,30.26,0.69,-6.75,
424,1661544200373,-0.8157,0.4217,-0.1483,31.75,1.79,-1.28,
425,1661544200374,-0.8289,0.577,-0.1327,31.25,-2.53,-6.66,
426,1661544200374,-0.763,0.4237,-0.0507,32.65,-6.42,1.36,
427,1661544200375,-0.7537,0.1913,-0.0263,32.14,-2.44,-3.37,
428,1661544200375,-0.7464,0.4398,0.0445,32.65,-1.26,-4.93,
429,1661544200376,-0.7274,0.3773,-0.1132,36.85,3.73,-8.49,
430,1661544200376,-0.7654,0.1146,-0.0692,35.25,5.26,-1.28,
431,1661544200376,-0.7669,0.1834,-0.0697,34.96,0.01,-2.11,
432,1661544200379,-0.8841,-0.0461,-0.1879,36.06,-5.91,0.36,
433,1661544200379,-0.8187,0.1082,-0.1767,31.83,-19.78,-1.47,
434,1661544200379,-0.8377,0.1322,-0.0473,33.36,-7.94,-4.84,
435,1661544200379,-0.8074,-0.1828,-0.0971,35.63,-6.25,-1.92,
436,1661544200379,-0.659,0.1346,-0.1234,36.06,-0.33,-9.04,
437,1661544200379,-0.9207,-0.0207,0.1324,35.05,-3.29,-8.3,
438,1661544200380,-0.9266,-0.1086,-0.1132,30.73,-15.8,-6.75,
439,1661544200380,-0.9319,0.057,0.149,28.15,-4.98,-2.73,
440,1661544200382,-0.9676,-0.0519,-0.0819,33.74,-3.03,-3.19,
441,1661544200382,-0.8748,-0.0148,-0.1542,31.14,8.64,1.19,
442,1661544200382,-0.929,0.1268,-0.0453,29.65,4.08,-1.28,
443,1661544200382,-0.9422,0.2474,-0.1449,27.63,-5.56,-4.66,
444,1661544200383,-0.9671,0.0638,-0.247,27.94,-21.39,-4.84,
445,1661544200383,-1.0613,0.0873,-0.0004,31.14,-10.64,2.27,
446,1661544200384,-1.0174,0.265,0.0289,27.85,-8.78,-4.02,
447,1661544200384,-1.0726,0.1595,-0.1122,26.55,-4.05,0.18,
448,1661544200385,-1.0682,-0.0016,0.0807,28.05,-4.56,-7.2,
449,1661544200385,-0.9998,0.0291,0.1637,26.75,-7.85,-2.47,
450,1661544200386,-1.0672,0.1004,0.127,26.84,-12.25,-8.03,
451,1661544200386,-1.2386,-0.067,0.106,25.94,-6.59,-4.47,
452,1661544200386,-1.1971,-0.1852,0.316,22.16,-5.56,-3.1,
453,1661544200387,-1.1815,-0.027,0.2789,18.27,-0.67,-5.3,
454,1661544200387,-1.1873,-0.0587,-0.019,20.95,-8.52,-5.39,
455,1661544200389,-1.1663,-0.1969,0.2345,20.46,-6.92,-4.93,
456,1661544200389,-1.2537,-0.1149,0.4898,17.85,0.1,-3.19,
457,1661544200389,-1.2293,0.0233,0.2144,18.46,-11.15,-3.37,
458,1661544200389,-1.3299,-0.194,0.0987,17.15,-1.09,-0.0,
459,1661544200390,-1.1829,0.1512,0.4962,15.55,0.1,-3.56,
460,1661544200390,-1.1414,0.1742,0.0162,14.86,2.89,-2.02,
461,1661544200392,-1.1912,0.1551,0.1261,18.65,12.03,-1.74,
462,1661544200392,-1.2703,0.1449,0.0953,22.75,9.65,0.18,
463,1661544200392,-1.0931,0.1722,0.2916,19.44,19.05,-3.28,
464,1661544200392,-1.138,0.5414,0.1895,17.66,1.96,-6.12,
465,1661544200392,-0.9886,0.2201,-0.3339,16.05,-6.42,-1.74,
466,1661544200393,-1.0506,0.1976,0.1827,17.95,-8.02,-2.83,
467,1661544200393,-1.1297,0.5565,0.4649,19.84,-1.93,-6.12,
468,1661544200394,-1.0521,0.6195,-0.058,24.93,-11.91,-3.83,
469,1661544200394,-1.118,0.2469,0.0743,23.24,9.91,-5.48,
470,1661544200395,-1.033,0.5965,0.4654,22.05,4.75,-3.28,
471,1661544200395,-0.9051,0.3402,-0.0819,24.66,-2.02,-5.66,
472,1661544200395,-0.9124,0.4139,0.0406,24.66,-7.94,-2.73,
473,1661544200396,-0.9407,0.4188,0.1974,25.65,2.63,-4.11,
474,1661544200396,-0.9373,0.1327,0.0338,26.46,4.08,-3.28,
475,1661544200397,-0.9109,0.3495,-0.1166,25.76,5.68,-4.2,
476,1661544200397,-0.9505,0.1449,0.0548,29.83,5.85,-5.48,
477,1661544200398,-0.8162,0.0135,-0.0526,27.25,-1.17,2.91,
478,1661544200398,-0.7635,0.2381,-0.1371,23.96,-7.09,-3.74,
479,1661544200399,-0.8211,0.1761,0.0016,29.25,-4.13,4.19,
480,1661544200399,-0.8875,0.0028,0.2267,30.55,2.39,-0.0,
481,1661544200400,-0.8226,0.3626,-0.0336,26.86,2.55,-1.92,
482,1661544200400,-0.6717,0.2381,-0.1518,29.16,-1.09,-1.83,
483,1661544200401,-0.8069,0.2411,0.1539,30.35,13.71,-2.47,
484,1661544200401,-0.7288,0.3192,-0.0971,34.96,-7.76,-5.3,
485,1661544200401,-0.7488,0.1742,-0.5824,31.85,6.35,-8.67,
486,1661544200402,-0.8187,0.7098,0.1544,34.73,8.72,-7.2,
487,1661544200402,-0.7899,0.1771,-0.4276,41.84,-1.43,-10.49,
488,1661544200403,-0.7044,0.1776,-0.4438,35.63,-13.77,-5.21,
489,1661544200403,-0.8001,0.64,-0.0458,31.83,-16.64,-13.69,
490,1661544200404,-0.8226,0.0692,-0.2484,38.45,-14.54,-2.92,
491,1661544200404,-0.8758,0.0116,-0.1767,39.64,-3.46,-1.92,
492,1661544200405,-0.9232,0.3123,0.2369,35.95,-7.52,-0.83,
493,1661544200405,-0.928,-0.0026,0.0416,29.25,-13.1,-1.65,
494,1661544200407,-0.9017,0.0941,-0.0038,32.35,-11.58,-2.83,
495,1661544200407,-0.9544,-0.1701,0.024,34.73,-6.33,-4.93,
496,1661544200407,-0.9578,-0.1105,-0.0072,30.46,-4.63,-3.56,
497,1661544200407,-0.9857,-0.1032,-0.0566,32.14,-5.91,-6.66,
498,1661544200408,-1.0223,-0.3361,-0.1083,31.74,-10.14,0.55,
499,1661544200408,-0.8812,-0.0089,-0.1122,26.75,-10.72,-3.28,
500,1661544200408,-1.032,-0.2467,-0.0995,23.94,-16.4,-5.94,
501,1661544200409,-1.0208,-0.2336,-0.0053,25.85,-15.3,-4.2,
502,1661544200409,-1.1717,-0.1042,0.2086,26.15,-1.43,1.72,
503,1661544200410,-1.2034,-0.0211,0.4034,23.44,-5.82,1.63,
504,1661544200410,-1.2332,-0.0089,0.1607,19.97,-8.77,-1.56,
505,1661544200411,-1.139,0.0804,0.4225,21.45,-2.1,-1.28,
506,1661544200411,-1.1326,0.0706,0.0738,22.46,-1.43,-1.1,
507,1661544200412,-1.1077,0.264,0.1617,21.74,9.65,-4.02,
508,1661544200412,-1.2108,0.2591,0.2892,22.25,6.95,-3.92,
509,1661544200413,-1.2332,0.1234,0.0987,21.74,-0.16,-4.38,
510,1661544200413,-1.1995,0.224,-0.0316,19.26,-10.98,-4.93,
511,1661544200414,-1.159,0.4095,0.1715,17.75,-5.99,-8.49,
512,1661544200414,-1.1419,0.1839,0.0719,21.04,-5.99,-8.67,
513,1661544200427,-1.1517,0.2455,0.1427,20.65,5.18,-9.77,
514,1661544200427,-1.1151,0.2762,0.1798,19.14,1.62,-3.65,
515,1661544200427,-1.1268,0.2196,0.233,19.15,2.63,-10.49,
516,1661544200427,-1.1146,0.1175,0.2354,18.95,-2.77,-5.3,
517,1661544200427,-1.1009,0.1541,0.0963,20.04,1.62,-8.12,
518,1661544200427,-1.0609,0.118,0.1808,19.35,8.05,-5.3,
519,1661544200427,-1.1263,0.1546,0.212,16.83,3.73,-2.2,
520,1661544200427,-1.2151,0.0599,0.1661,18.04,-4.05,-1.83,
521,1661544200427,-1.0618,-0.0041,0.11,21.96,-5.49,2.64,
522,1661544200427,-1.1414,0.2152,0.3336,24.05,5.26,-3.65,
523,1661544200427,-0.9622,0.096,0.0953,22.75,2.8,3.37,
524,1661544200427,-1.0218,0.076,0.1104,17.06,3.06,2.0,
525,1661544200427,-1.0169,0.4149,0.3287,14.47,1.03,-5.02,
526,1661544200427,-0.9637,0.1117,-0.0946,19.78,-12.06,-3.28,
527,1661544200427,-0.9764,0.2953,0.2574,28.84,15.23,-0.64,
528,1661544200427,-0.9568,0.5907,0.3033,30.14,14.23,-0.55,
529,1661544200427,-0.8445,0.4759,-0.161,26.55,16.59,-0.0,
530,1661544200427,-0.8074,0.3949,-0.2777,20.16,-0.24,-3.37,
531,1661544200427,-0.8001,0.4168,-0.1376,28.46,-5.91,-0.92,
532,1661544200427,-0.7762,0.4637,-0.0673,32.75,-3.79,-1.92,
533,1661544200427,-0.7498,0.743,-0.2226,33.65,1.36,-7.66,
534,1661544200427,-0.7493,0.2303,-0.2636,33.16,-0.83,-5.57,
535,1661544200427,-0.7371,0.2123,-0.102,27.97,4.51,-7.94,
536,1661544200427,-0.6942,0.641,-0.0507,32.75,-4.39,-11.4,
537,1661544200427,-0.7225,0.2674,-0.2929,38.15,-6.59,-7.11,
538,1661544200427,-0.785,0.1571,-0.0546,36.04,-3.03,-5.94,
539,1661544200427,-0.7567,0.1219,-0.0419,35.16,6.35,-2.92,
540,1661544200427,-0.7625,0.1107,-0.2826,34.64,-1.67,-10.49,
541,1661544200427,-0.7762,0.1561,-0.0819,34.44,-11.07,-3.56,
542,1661544200428,-0.8587,-0.1569,-0.0326,35.84,-11.07,-3.65,
543,1661544200428,-0.6839,0.0843,-0.289,32.64,-9.62,1.63,
544,1661544200430,-0.8436,0.0384,-0.1181,32.15,-3.63,-0.09,
545,1661544200430,-0.9471,-0.1618,0.2042,34.75,-9.29,0.09,
546,1661544200430,-0.9695,-0.0968,-0.0268,35.63,-10.39,0.64,
547,1661544200431,-0.9539,-0.0011,0.0289,32.53,-4.98,4.56,
548,1661544200431,-0.9886,-0.0431,0.0733,32.94,-4.72,7.11,
549,1661544200431,-0.91,0.0706,-0.0375,28.15,-1.84,3.83,
550,1661544200432,-0.9149,0.1219,-0.1547,27.76,-6.33,3.83,
551,1661544200432,-0.9905,0.138,-0.1425,27.16,-0.41,2.45,
552,1661544200432,-1.0511,-0.0138,-0.058,33.16,-5.82,5.64,
553,1661544200433,-1.0076,0.1385,-0.12,26.93,-12.0,-1.1,
554,1661544200433,-1.033,0.3397,-0.1029,24.37,-17.14,-2.11,
555,1661544200434,-1.0765,0.0775,-0.0048,28.84,-13.6,-3.56,
556,1661544200434,-1.0452,0.0755,0.149,28.06,-8.52,1.19,
557,1661544200435,-1.0779,0.1834,0.1627,23.76,-10.98,-7.02,
558,1661544200435,-1.1331,0.1742,0.0855,26.03,-10.48,-7.39,
559,1661544200436,-1.2366,-0.0861,0.2506,26.87,-5.81,-5.48,
560,1661544200436,-1.1751,-0.0832,0.4151,24.05,-4.3,-4.66,
561,1661544200437,-1.2288,0.0653,0.1432,20.16,-4.98,-5.57,
562,1661544200437,-1.1932,-0.1129,0.0499,20.05,-5.32,-8.03,
563,1661544200437,-1.2464,-0.1559,0.398,19.65,-0.33,-5.75,
564,1661544200438,-1.2928,-0.0407,0.3878,18.16,-10.39,-4.2,
565,1661544200438,-1.1536,-0.0539,-0.1459,19.96,-11.24,-1.19,
566,1661544200440,-1.3118,-0.1325,0.3385,18.16,8.64,-5.48,
567,1661544200440,-1.1253,0.0199,0.3663,16.77,-5.55,-3.47,
568,1661544200440,-1.2547,0.0501,0.1158,14.86,-3.46,2.36,
569,1661544200440,-1.2508,0.1771,0.2613,17.58,-9.61,-1.01,
570,1661544200441,-1.1712,-0.0587,0.2916,20.94,-5.15,4.19,
571,1661544200441,-1.1317,0.1673,0.3922,20.36,16.09,2.55,
572,1661544200442,-1.1556,0.516,0.1178,18.75,16.26,-1.38,
573,1661544200442,-0.9422,0.0501,-0.0497,20.26,23.61,2.18,
574,1661544200444,-1.0692,0.451,0.235,16.95,11.86,-1.1,
575,1661544200444,-1.0081,0.6444,-0.0649,17.75,-13.27,-0.0,
576,1661544200444,-1.119,0.2083,-0.099,23.56,-18.59,-1.83,
577,1661544200444,-1.0594,0.4364,0.1656,25.36,4.58,2.0,
578,1661544200444,-0.9388,0.5531,0.0636,27.74,7.79,0.91,
579,1661544200445,-0.9217,0.3866,-0.0956,28.14,17.02,1.28,
580,1661544200445,-0.9573,0.4847,0.1207,25.54,9.74,-3.74,
581,1661544200446,-0.9437,0.0877,0.149,23.55,-5.15,-0.64,
582,1661544200446,-0.8992,0.1751,0.1637,23.85,-14.11,-2.02,
583,1661544200447,-0.9095,0.4725,0.0216,29.25,-10.55,-3.56,
584,1661544200447,-0.8841,-0.067,-0.0561,31.83,5.94,-0.73,
585,1661544200448,-0.7527,0.2718,0.0479,27.05,15.74,-4.38,
586,1661544200448,-0.8235,0.263,-0.1274,24.75,-2.53,-3.19,
587,1661544200448,-0.8323,-0.1505,-0.0478,27.65,-7.18,-0.64,
588,1661544200449,-0.9197,0.2674,0.1778,36.33,4.25,0.91,
589,1661544200449,-0.6732,0.347,-0.1005,31.54,-0.67,1.45,
590,1661544200450,-0.6478,0.1966,-0.1996,24.75,8.55,1.91,
591,1661544200450,-0.7347,0.3275,0.0807,30.95,12.44,-2.2,
592,1661544200451,-0.7469,-0.0055,-0.4316,34.85,-1.84,5.92,
593,1661544200451,-0.762,0.659,0.1856,35.65,4.32,0.09,
594,1661544200452,-0.8885,0.7743,0.1705,36.74,-10.31,1.1,
595,1661544200452,-0.7552,-0.1256,-0.456,34.53,-7.01,1.28,
596,1661544200453,-0.7645,0.3509,-0.205,29.45,-1.76,-3.65,
597,1661544200453,-0.7278,0.5814,-0.185,35.83,-1.76,-0.09,
598,1661544200453,-0.8192,0.0501,-0.3886,42.24,-13.1,-6.4,
599,1661544200454,-0.9246,0.3133,0.0807,36.55,-8.78,-2.02,
600,1661544200455,-0.909,0.1922,0.0914,33.04,-17.33,-2.92,
601,1661544200455,-0.8997,0.0575,-0.1698,33.25,-11.65,-0.28,
602,1661544200456,-0.9217,0.1541,-0.0004,35.83,-9.97,-5.21,
603,1661544200456,-0.9407,-0.2047,-0.0326,33.17,-8.94,-0.37,
604,1661544200457,-0.992,-0.006,0.0772,29.54,-12.93,-10.94,
605,1661544200457,-1.1287,-0.1911,0.0377,30.46,-13.6,-4.38,
606,1661544200457,-0.9798,-0.2414,0.0299,29.25,-10.05,-3.47,
607,1661544200458,-1.0418,0.0545,0.0772,23.44,-0.07,-2.38,
608,1661544200458,-1.032,-0.2892,-0.227,22.46,-6.33,-1.38,
609,1661544200459,-1.1151,-0.2057,0.1505,23.85,-13.1,-3.28,
610,1661544200459,-1.2352,-0.0705,0.4737,24.45,-16.64,-4.93,
611,1661544200461,-1.1326,-0.0612,0.1017,27.76,-23.92,-5.21,
612,1661544200461,-1.2996,-0.0968,0.1778,20.94,1.36,2.73,
613,1661544200462,-1.1815,0.0208,0.4278,21.24,6.11,0.46,
614,1661544200462,-1.1111,-0.0392,-0.0321,19.76,8.47,-1.56,
615,1661544200462,-1.2493,0.3182,0.3551,20.45,2.13,-4.75,
616,1661544200464,-1.2982,0.2318,0.4268,20.77,-2.68,-5.85,
617,1661544200464,-1.1927,-0.0485,0.1373,21.96,-4.56,-5.02,
618,1661544200464,-1.2679,0.3187,0.0289,17.56,-5.82,-9.31,
619,1661544200464,-1.136,0.2992,0.0006,17.55,-1.34,-6.3,
620,1661544200464,-1.2,0.076,0.0621,14.94,1.36,-4.84,
621,1661544200464,-1.1302,0.4124,0.1329,14.04,0.27,-9.77,
622,1661544200465,-1.1771,0.2982,-0.0024,19.24,-2.95,-10.39,
623,1661544200465,-1.1614,0.2079,0.1783,22.55,7.71,-11.31,
624,1661544200466,-1.1292,0.2415,0.2364,23.44,-3.03,-10.85,
625,1661544200466,-1.0877,0.0682,0.045,14.37,-5.21,-10.67,
626,1661544200467,-1.136,0.2455,0.2423,15.15,-1.26,-9.68,
627,1661544200467,-1.2127,0.0487,0.2237,23.16,2.89,-9.4,
628,1661544200467,-1.1141,-0.1076,0.1778,24.25,-2.69,-2.47,
629,1661544200468,-1.0843,0.1971,0.2476,21.45,-3.53,-6.84,
630,1661544200468,-1.1028,0.2015,0.1934,19.27,-5.14,-2.73,
631,1661544200469,-0.9612,-0.0832,0.1085,18.36,5.42,-2.29,
632,1661544200469,-0.9988,0.3846,0.3233,19.26,5.59,2.55,
633,1661544200471,-0.8763,0.451,0.2516,21.26,3.23,4.65,
634,1661544200471,-1.0701,0.0072,0.0089,23.55,0.36,5.83,
635,1661544200471,-0.9798,0.3495,0.1363,23.74,-4.72,8.85,
636,1661544200474,-0.9036,0.3641,0.1036,22.26,-4.22,4.47,
637,1661544200474,-0.8577,0.4847,0.1129,23.16,6.02,-1.74,
638,1661544200474,-0.8279,0.4681,-0.3847,31.95,-1.6,3.64,
639,1661544200474,-0.7791,-0.0011,-0.2314,27.05,18.96,4.38,
640,1661544200474,-0.8084,0.7655,0.2037,29.56,9.15,0.73,
641,1661544200474,-0.6902,0.6297,-0.4648,28.06,-2.1,-2.47,
642,1661544200474,-0.7513,0.0633,-0.349,34.96,-10.05,3.0,
643,1661544200474,-0.7625,0.3709,0.024,30.15,0.01,1.1,
644,1661544200475,-0.6883,0.6356,-0.0316,31.65,-7.85,-5.02,
645,1661544200475,-0.7733,0.3221,-0.3896,36.85,-1.84,-3.19,
646,1661544200476,-0.8167,0.2225,0.0909,37.23,2.89,-5.75,
647,1661544200476,-0.8123,0.1048,0.047,32.55,-1.5,-3.37,
648,1661544200476,-0.7488,0.245,-0.1889,34.76,-14.6,-3.01,
649,1661544200477,-0.7967,0.1732,-0.2719,37.54,-9.04,-3.37,
650,1661544200478,-0.868,-0.1403,0.232,34.33,-1.84,-4.11,
651,1661544200478,-0.7542,0.1566,-0.1562,32.44,-4.89,-5.66,
652,1661544200478,-0.9124,-0.1335,-0.268,33.65,-5.99,-6.21,
653,1661544200479,-0.8416,-0.2711,0.1085,31.75,-12.41,0.27,
654,1661544200479,-0.9754,-0.0285,0.0714,29.83,-5.99,-0.09,
655,1661544200480,-0.9285,-0.0524,-0.2377,28.73,-9.12,-1.65,
656,1661544200480,-1.0301,-0.2389,0.1568,30.53,-2.1,4.29,
657,1661544200481,-0.9564,-0.1203,0.3272,27.65,-0.57,2.09,
658,1661544200481,-0.8607,0.2455,-0.2021,26.26,-12.58,2.0,
659,1661544200483,-0.9334,0.1498,-0.2274,29.16,-5.06,-1.47,
660,1661544200483,-1.076,-0.1476,0.1383,28.66,1.36,2.36,
661,1661544200484,-0.9803,0.2723,-0.0458,22.03,-3.37,-1.65,
662,1661544200484,-1.0789,0.368,-0.2655,25.06,-14.79,-3.47,
663,1661544200484,-1.1136,0.1361,-0.14,28.35,-14.11,-4.29,
664,1661544200484,-1.0648,-0.0534,0.2389,28.66,-11.74,-4.47,
665,1661544200484,-1.0843,0.3324,0.1163,23.45,-14.28,-10.76,
666,1661544200487,-1.199,0.2445,-0.0995,27.45,-10.98,-5.48,
667,1661544200487,-1.222,-0.1129,0.3643,29.04,-3.29,-5.02,
668,1661544200487,-1.22,0.0208,0.4322,19.55,-3.87,-4.38,
669,1661544200487,-1.2347,0.1331,-0.0639,20.46,-12.84,-3.37,
670,1661544200487,-1.2142,-0.1505,0.2555,20.55,-7.76,1.72,
671,1661544200487,-1.2654,-0.0617,0.4976,19.64,8.05,1.54,
672,1661544200488,-1.1541,0.0531,0.1168,18.66,-3.37,-3.37,
673,1661544200488,-1.1976,-0.0763,-0.1874,18.94,-2.19,3.1,
674,1661544200490,-1.3074,-0.0968,0.4762,17.56,-6.08,1.54,
675,1661544200490,-1.1336,-0.0392,0.19,14.36,-13.35,1.28,
676,1661544200490,-1.2313,0.1454,0.0445,14.85,-4.56,-1.01,
677,1661544200490,-1.2039,0.0291,0.3463,21.96,6.35,7.29,
678,1661544200490,-1.202,-0.1042,0.4664,20.74,16.42,0.82,
679,1661544200491,-1.1297,0.3509,0.2506,13.86,8.31,0.09,
680,1661544200491,-1.1317,0.2738,0.0191,14.45,3.39,-3.28,
681,1661544200492,-1.0657,0.0995,0.4928,17.46,15.74,-4.66,
682,1661544200492,-1.0726,0.3456,0.3526,19.44,1.12,-5.02,
683,1661544200493,-0.9407,0.5623,-0.3402,21.45,-6.16,-2.92,
684,1661544200493,-1.0877,0.3167,0.0719,21.06,2.22,-2.92,
685,1661544200493,-1.0169,0.4828,0.3033,23.96,3.73,-1.65,
686,1661544200494,-0.9222,0.3587,-0.2372,27.24,-1.26,-4.75,
687,1661544200495,-0.9549,0.4793,-0.185,24.03,1.62,-3.47,
688,1661544200495,-0.9842,0.5531,0.1104,24.37,-8.26,-5.3,
689,1661544200495,-0.9334,0.0794,0.1197,25.04,-1.84,-3.28,
690,1661544200496,-0.908,0.4417,0.0645,26.55,-0.91,-7.02,
691,1661544200496,-0.8734,0.2835,-0.0639,28.55,4.66,-2.2,
692,1661544200497,-0.7923,-0.0431,0.0357,27.65,7.62,-0.83,
693,1661544200497,-0.7557,0.2235,0.0709,28.95,5.51,-3.65,
694,1661544200498,-0.827,0.3036,-0.1215,28.06,-2.95,7.02,
695,1661544200498,-0.8294,-0.0402,-0.1171,29.85,-0.33,0.18,
696,1661544200498,-0.9881,0.0843,0.1222,31.54,3.65,3.83,
697,1661544200499,-0.576,0.1292,-0.2079,31.54,-3.46,4.65,
698,1661544200500,-0.7225,0.2328,-0.1899,24.96,-6.07,1.81,
699,1661544200500,-0.7537,0.3983,0.1178,31.36,-1.5,3.0,
700,1661544200501,-0.763,-0.2731,-0.3881,32.24,-14.2,2.27,
701,1661544200501,-0.8607,0.4828,0.0606,31.34,3.73,0.55,
702,1661544200501,-0.8802,0.5018,0.0016,37.03,1.12,0.91,
703,1661544200502,-0.9022,0.0457,-0.2939,38.06,8.9,5.73,
704,1661544200502,-0.7401,0.159,-0.3612,33.17,-1.75,2.73,
705,1661544200503,-0.7693,0.4286,-0.1796,28.86,-3.12,0.91,
706,1661544200503,-0.7952,0.2879,-0.3188,33.36,-15.21,1.81,
707,1661544200505,-0.9681,0.2201,-0.1689,37.34,-10.98,-0.28,
708,1661544200505,-0.9212,-0.007,-0.0668,34.84,-12.93,1.45,
709,1661544200505,-0.9119,0.3856,0.025,29.54,-9.12,-4.11,
710,1661544200506,-0.928,0.3373,-0.015,30.85,-13.18,-3.37,
711,1661544200506,-0.9544,-0.1984,-0.1357,29.24,-9.97,-2.29,
712,1661544200506,-0.9241,0.0384,0.1617,30.55,-5.65,-5.85,
713,1661544200507,-1.1107,-0.0583,0.0514,31.83,-8.19,-5.94,
714,1661544200508,-1.0198,-0.215,-0.0395,30.05,-7.18,-4.56,
715,1661544200508,-1.0013,-0.008,0.1231,24.57,-3.02,-10.39,
716,1661544200508,-1.0208,-0.1535,-0.1962,21.65,-14.44,-7.94,
717,1661544200508,-1.0926,-0.216,-0.0692,23.44,-14.37,-2.73,
718,1661544200510,-1.1927,-0.1188,0.3936,25.67,-10.03,-0.83,
719,1661544200511,-1.1175,-0.0329,0.045,24.54,-13.1,-0.55,
720,1661544200511,-1.2576,-0.047,0.1383,19.14,-2.02,1.28,
721,1661544200511,-1.2059,-0.0602,0.5279,19.76,-0.07,4.29,
722,1661544200511,-1.1736,-0.0163,0.2135,15.44,-3.29,1.91,
723,1661544200511,-1.1868,0.2679,0.1363,17.14,-6.66,0.36,
724,1661544200511,-1.2918,0.057,0.2765,24.66,-0.91,3.28,
725,1661544200512,-1.243,-0.0631,0.4142,22.65,11.6,3.64,
726,1661544200512,-1.2454,0.2948,0.1212,20.65,7.45,1.91,
727,1661544200513,-1.0984,0.3446,-0.4037,15.96,3.99,-1.47,
728,1661544200513,-1.1785,0.1517,0.0885,11.58,-3.35,-0.0,
729,1661544200514,-1.1473,0.3333,0.2198,20.26,-7.94,-2.2,
730,1661544200514,-1.2025,0.2962,-0.0248,21.56,-13.44,-3.92,
731,1661544200515,-1.2108,0.3358,0.0465,19.94,3.39,-1.65,
732,1661544200515,-1.1478,0.3314,0.421,18.57,1.04,-0.0,
733,1661544200516,-1.0906,0.0692,0.1822,17.26,1.87,-1.47,
734,1661544200517,-1.1087,0.3216,0.1764,14.25,-0.83,-5.66,
735,1661544200517,-1.1307,0.1742,0.2804,20.36,0.6,-5.85,
736,1661544200517,-1.0921,-0.0128,0.2896,22.34,-0.83,-4.02,
737,1661544200517,-1.0862,0.1561,0.1866,19.26,-2.6,-4.02,
738,1661544200518,-1.1224,0.2367,0.0499,21.56,-7.35,-2.38,
739,1661544200518,-1.0286,-0.05,0.1256,21.96,4.42,2.18,
740,1661544200519,-1.0316,0.244,0.2003,20.66,6.61,0.91,
741,1661544200519,-0.9334,0.2855,0.089,15.66,-1.17,-1.28,
742,1661544200521,-1.0125,0.1649,0.1402,17.64,-3.29,-1.83,
743,1661544200521,-1.0311,0.1273,0.2135,28.26,0.1,2.09,
744,1661544200521,-0.9236,0.1815,0.0714,31.25,-1.84,4.29,
745,1661544200521,-0.8231,0.7957,0.2413,25.83,14.06,-2.02,
746,1661544200523,-0.8118,0.6336,-0.0478,26.25,8.72,-0.37,
747,1661544200523,-0.8148,-0.2589,-0.3441,29.63,17.69,4.1,
748,1661544200523,-0.8201,0.6903,0.2237,25.36,1.7,-0.46,
749,1661544200523,-0.7371,0.7762,-0.3925,32.06,-7.35,-4.93,
750,1661544200523,-0.6815,0.0697,-0.5868,37.54,-5.23,-2.2,
751,1661544200524,-0.6624,0.4369,-0.0536,34.33,6.19,0.82,
752,1661544200524,-0.64,0.5687,-0.016,30.26,2.22,-0.92,
753,1661544200526,-0.7747,0.5506,-0.4023,33.86,-7.41,-4.75,
754,1661544200526,-0.7508,0.2284,-0.1469,37.64,-8.28,-1.47,
755,1661544200526,-0.7874,0.0848,0.2726,33.45,-4.46,-1.92,
756,1661544200528,-0.7479,0.4168,-0.2504,36.26,-11.32,-4.56,
757,1661544200528,-0.8372,-0.1198,-0.2152,35.16,-9.12,0.27,
758,1661544200528,-0.9124,-0.193,0.1451,32.14,4.42,-3.92,
759,1661544200528,-0.742,0.1659,0.1324,33.16,-4.89,-0.28,
760,1661544200528,-0.9109,-0.1017,-0.3891,35.04,-6.59,-0.83,
761,1661544200528,-0.8895,-0.2785,-0.1161,33.25,-12.93,3.74,
762,1661544200529,-0.908,-0.1471,0.2091,28.24,-7.42,3.28,
763,1661544200529,-0.9261,0.0414,-0.2865,27.45,-19.95,3.0,
764,1661544200530,-1.0604,-0.2316,-0.0131,31.45,-9.71,0.55,
765,1661544200530,-1.0286,-0.4196,0.3072,30.75,1.96,3.28,
766,1661544200531,-0.8621,0.1146,0.0914,23.24,-6.49,-1.1,
767,1661544200531,-0.8934,0.3128,-0.3446,23.94,-12.0,-1.19,
768,1661544200532,-1.0823,-0.2868,0.1187,32.15,0.1,0.27,
769,1661544200532,-1.012,0.0589,0.2213,29.95,11.86,3.0,
770,1661544200532,-1.0384,0.451,-0.3246,26.15,-2.1,-0.19,
771,1661544200533,-1.0399,0.2733,-0.3583,21.55,-13.68,-0.55,
772,1661544200534,-1.1136,-0.1007,0.2232,23.45,-16.9,-2.47,
773,1661544200534,-1.1102,0.1786,0.1788,24.75,-19.43,-3.1,
774,1661544200535,-1.1644,0.4354,-0.1908,25.85,-17.24,-3.1,
775,1661544200535,-1.2254,0.0096,0.231,22.95,-3.37,-0.28,
776,1661544200535,-1.2083,-0.0563,0.5538,19.04,1.87,-1.19,
777,1661544200536,-1.2366,0.2791,0.0675,20.66,-10.64,-4.93,
778,1661544200536,-1.2816,-0.0631,0.1363,23.26,-12.67,-0.09,
779,1661544200537,-1.2347,-0.1681,0.4532,19.56,3.23,-2.2,
780,1661544200537,-1.1512,0.0638,0.3346,19.65,3.06,-1.74,
781,1661544200538,-1.1702,0.0663,-0.2436,16.76,1.46,-5.75,
782,1661544200538,-1.3304,-0.1476,0.2022,17.46,2.63,-4.56,
783,1661544200538,-1.137,-0.1081,0.3458,15.15,-12.25,-3.65,
784,1661544200540,-1.2191,0.1742,0.0118,13.06,-16.31,-6.47,
785,1661544200540,-1.2112,0.1664,-0.0297,18.56,-12.17,-7.48,
786,1661544200541,-1.2635,-0.1974,0.4674,17.95,16.0,-1.56,
787,1661544200541,-1.2151,0.2049,0.607,13.35,10.93,-4.47,
788,1661544200541,-1.16,0.3831,-0.0912,12.76,-5.65,-2.02,
789,1661544200541,-1.096,0.0179,0.5601,18.16,9.31,-1.92,
790,1661544200542,-1.0447,0.4159,0.3414,18.66,0.69,-3.92,
791,1661544200542,-0.9632,0.5106,-0.0634,18.65,1.29,-2.11,
792,1661544200543,-1.0413,0.4784,-0.2245,16.45,10.58,-6.03,
793,1661544200543,-0.9974,0.3924,0.1334,25.79,14.15,-3.47,
794,1661544200544,-0.9251,0.3348,-0.1444,24.25,1.53,-4.11,
795,1661544200545,-0.8929,0.6971,-0.2846,23.85,-10.31,-1.01,
796,1661544200545,-0.9261,0.3661,-0.0302,27.16,-12.08,-4.38,
797,1661544200545,-0.9095,0.2904,0.2686,26.55,6.52,2.91,
798,1661544200545,-0.8948,0.4749,0.151,25.04,3.15,-4.47,
799,1661544200547,-0.8333,0.4012,-0.2187,28.26,6.78,1.36,
800,1661544200547,-0.8187,0.0345,0.1812,30.26,9.91,0.27,
801,1661544200548,-0.8128,0.3866,0.2403,31.36,4.32,-5.85,
802,1661544200548,-0.8782,0.3104,-0.0561,26.44,-5.23,1.19,
803,1661544200549,-0.8001,0.0296,-0.2123,29.63,0.77,-0.37,
804,1661544200549,-0.9134,0.1146,0.1861,29.83,4.92,-3.56,
805,1661544200549,-0.8011,0.016,-0.2274,28.14,-1.34,0.18,
806,1661544200549,-0.7923,0.2157,-0.2753,25.56,0.43,-5.94,
807,1661544200550,-0.6995,0.2318,0.065,31.75,7.21,-0.19,
808,1661544200550,-0.7215,-0.0475,-0.1049,34.75,-1.43,1.81,
809,1661544200550,-0.8192,0.0692,-0.1845,32.65,4.42,0.46,
810,1661544200551,-0.784,0.3822,0.1012,29.95,-6.08,6.74,
811,1661544200551,-0.8392,0.1444,-0.0043,30.55,-7.18,3.1,
812,1661544200552,-0.7493,0.1771,-0.4496,33.07,-13.93,4.83,
813,1661544200552,-0.8001,0.181,-0.4062,35.25,9.41,7.29,
814,1661544200553,-0.7625,0.3895,0.0963,36.73,11.01,0.55,
815,1661544200553,-0.9193,0.3138,-0.269,37.34,2.39,-2.83,
816,1661544200555,-0.8909,-0.0963,-0.3485,31.05,-9.12,0.91,
817,1661544200555,-0.9056,0.3485,0.108,26.64,-18.93,-0.37,
818,1661544200555,-0.9095,0.2748,-0.1811,30.55,-21.89,-1.56,
819,1661544200556,-0.9173,0.0169,-0.3651,35.16,-11.83,0.55,
820,1661544200556,-0.9573,0.0521,0.0113,32.06,3.56,1.72,
821,1661544200557,-0.9954,-0.029,0.2447,26.84,-2.86,-2.64,
822,1661544200557,-1.0193,-0.069,-0.1191,28.66,-16.14,-3.47,
823,1661544200558,-1.0467,-0.0993,0.0811,25.65,-16.06,0.18,
824,1661544200558,-0.9808,-0.0939,0.1602,24.46,-6.33,-0.19,
825,1661544200558,-1.0345,-0.0656,-0.1117,22.34,-5.82,1.91,
826,1661544200558,-1.202,-0.1945,-0.0087,22.26,-7.18,2.64,
827,1661544200559,-1.1409,-0.2111,0.2384,21.45,-15.37,3.64,
828,1661544200559,-1.2381,-0.0172,0.3268,19.04,-11.83,4.01,
829,1661544200561,-1.2606,-0.0924,0.1207,17.96,-14.44,3.28,
830,1661544200561,-1.2103,-0.1256,0.2481,14.85,0.52,5.02,
831,1661544200561,-1.1727,0.181,0.5216,15.26,5.26,-2.83,
832,1661544200561,-1.2337,0.1463,0.1793,21.36,-7.26,-2.73,
833,1661544200561,-1.262,-0.0915,0.0826,22.55,8.14,-3.47,
834,1661544200562,-1.3196,0.1805,0.6319,21.44,10.0,-3.92,
835,1661544200562,-1.0975,0.3192,-0.1156,14.16,1.03,-3.1,
836,1661544200563,-1.0911,0.3031,-0.3451,11.25,-4.22,-4.84,
837,1661544200563,-1.1185,0.285,0.2555,14.54,2.05,-0.73,
838,1661544200564,-1.1771,0.1771,0.2735,17.96,-4.89,-4.75,
839,1661544200564,-1.2239,0.3353,-0.1039,20.26,-1.93,-10.04,
840,1661544200565,-1.1102,0.4735,0.067,16.74,-2.86,-8.94,
841,1661544200565,-1.0921,0.1136,0.3497,16.66,3.9,-8.39,
842,1661544200565,-1.0838,0.3226,0.2315,14.16,-1.93,-12.32,
843,1661544200566,-1.0399,0.2337,0.0807,20.14,-2.44,-12.04,
844,1661544200566,-1.0838,0.0736,0.2779,24.34,5.85,-10.23,
845,1661544200567,-1.1463,0.1566,0.4659,22.34,5.59,-8.76,
846,1661544200567,-1.1126,0.1585,0.0377,18.75,1.03,-10.13,
847,1661544200568,-0.9847,0.0746,0.0269,18.05,4.42,-4.02,
848,1661544200568,-1.0906,0.201,0.2467,22.16,5.85,-3.92,
849,1661544200570,-0.9612,0.139,0.0191,21.13,-6.83,3.55,
850,1661544200570,-0.8856,0.1209,-0.1039,17.56,-10.14,-2.92,
851,1661544200571,-1.0823,0.2625,0.2437,25.64,-4.56,5.92,
852,1661544200571,-0.8533,-0.0304,-0.059,31.63,-0.91,4.74,
853,1661544200571,-0.8826,0.5145,0.1471,24.05,12.44,2.55,
854,1661544200572,-0.8548,0.3641,0.0059,24.03,7.12,1.63,
855,1661544200572,-0.9139,-0.151,-0.1371,23.94,6.45,5.83,
856,1661544200573,-0.8255,0.304,0.0948,27.76,7.79,4.29,
857,1661544200573,-0.7825,0.7611,0.0318,29.85,4.75,2.09,
858,1661544200573,-0.7567,0.3358,-0.3915,35.55,4.66,0.36,
859,1661544200574,-0.7112,0.2293,-0.4442,33.16,0.1,0.18,
860,1661544200574,-0.6473,0.2699,-0.1103,26.95,7.28,1.63,
861,1661544200574,-0.7151,0.6351,-0.206,29.77,-5.98,-0.92,
862,1661544200575,-0.7654,0.4842,-0.4687,33.45,-15.04,-1.01,
863,1661544200575,-0.8196,0.0135,0.047,38.13,-6.66,0.73,
864,1661544200575,-0.8494,0.2772,0.1969,33.65,-5.23,-2.02,
865,1661544200577,-0.7845,0.4466,-0.2372,33.84,-9.29,-3.92,
866,1661544200577,-0.8836,-0.0832,-0.2328,35.54,-2.53,4.19,
867,1661544200577,-0.8069,0.1419,0.2848,33.83,1.46,-1.92,
868,1661544200577,-0.888,-0.068,-0.1332,32.85,-4.89,-1.47,
869,1661544200578,-0.9095,-0.1584,-0.3207,33.65,-10.98,-3.37,
870,1661544200578,-0.9544,-0.2013,0.2452,31.85,-1.34,5.02,
871,1661544200579,-0.9046,-0.0573,-0.0839,27.56,-3.03,-0.73,
872,1661544200579,-0.888,0.0023,-0.3783,25.45,-12.25,5.55,
873,1661544200580,-1.0931,-0.3761,0.0445,26.14,-11.91,1.54,
874,1661544200580,-0.9417,-0.1627,0.3268,26.84,-14.28,1.81,
875,1661544200581,-0.9993,0.3324,-0.1288,24.16,-8.62,-2.83,
876,1661544200581,-1.0506,-0.1505,-0.1147,26.35,-2.86,4.83,
877,1661544200581,-1.075,-0.2116,0.3404,23.64,6.86,3.1,
878,1661544200582,-1.0765,0.4002,0.0152,23.16,-1.76,-4.56,
879,1661544200583,-1.0482,0.3597,-0.2924,23.45,-10.39,-1.47,
880,1661544200583,-1.1321,0.0228,-0.0268,27.05,-9.55,-6.4,
881,1661544200584,-1.1434,0.0741,0.3009,21.85,-7.35,1.72,
882,1661544200584,-1.1165,0.3055,-0.1723,18.85,-17.92,-5.21,
883,1661544200584,-1.241,0.2401,-0.0683,22.26,-12.34,-5.85,
884,1661544200585,-1.2191,0.0394,0.4933,24.67,-3.35,-11.13,
885,1661544200585,-1.2049,0.2269,0.1949,19.85,-4.05,-9.95,
886,1661544200586,-1.2034,0.265,-0.0063,17.76,-11.91,-13.51,
887,1661544200587,-1.2567,-0.0002,0.2301,19.06,-4.72,-7.2,
888,1661544200587,-1.202,0.0321,0.502,19.64,2.46,-8.49,
889,1661544200587,-1.1898,0.1273,0.0045,19.84,4.16,-2.92,
890,1661544200589,-1.2776,-0.1081,-0.0356,17.85,2.39,-7.3,
891,1661544200589,-1.1478,-0.0822,0.3819,14.88,-5.38,-4.84,
892,1661544200589,-1.2498,0.138,0.151,14.05,-11.32,-3.83,
893,1661544200589,-1.1688,0.1288,-0.0976,17.56,-12.41,0.82,
894,1661544200589,-1.1302,-0.1418,0.1925,18.66,11.27,7.2,
895,1661544200590,-1.2181,0.078,0.7359,13.76,10.17,-1.19,
896,1661544200590,-1.1375,0.2494,-0.0707,12.36,-9.29,3.55,
897,1661544200591,-1.1009,0.181,0.4825,14.07,10.43,0.91,
898,1661544200591,-1.097,0.1864,0.5069,16.45,5.85,2.0,
899,1661544200593,-1.0242,0.2542,0.149,16.65,6.28,-1.01,
900,1661544200593,-0.9979,0.5526,-0.1391,19.15,5.18,-5.39,
901,1661544200593,-0.9881,0.4237,0.0562,24.75,12.44,-6.03,
902,1661544200593,-0.889,0.2723,-0.0766,25.56,9.07,-4.2,
903,1661544200593,-1.0027,0.4134,-0.1776,23.36,1.53,1.72,
904,1661544200595,-0.9363,0.5995,-0.2177,21.84,-14.37,0.64,
905,1661544200595,-0.9139,0.3187,0.005,23.96,-7.85,-0.28,
906,1661544200595,-0.8509,0.5262,0.0968,23.84,-4.56,-1.28,
907,1661544200595,-0.8309,0.4007,-0.2255,30.75,-5.65,0.73,
908,1661544200596,-0.7996,0.2386,0.172,34.46,7.21,-2.2,
909,1661544200596,-0.8851,0.3001,0.3062,33.45,8.55,-2.2,
910,1661544200597,-0.8699,0.2606,-0.0409,30.44,1.87,1.54,
911,1661544200597,-0.7977,0.1517,-0.1186,29.05,1.96,1.19,
912,1661544200598,-0.8021,0.1043,0.1222,29.45,8.38,2.82,
913,1661544200599,-0.7811,0.0521,-0.0766,32.84,-0.67,0.91,
914,1661544200599,-0.7405,0.0721,-0.3725,31.25,-2.36,-0.19,
915,1661544200599,-0.805,0.1742,-0.081,28.75,-5.49,2.55,
916,1661544200599,-0.679,0.0321,-0.0009,31.05,-8.45,2.0,
917,1661544200600,-0.909,0.0072,-0.1342,31.24,-5.49,1.36,
918,1661544200600,-0.721,0.2088,-0.1503,31.05,-3.29,5.92,
919,1661544200601,-0.8133,0.1278,0.1085,28.55,9.24,2.73,
920,1661544200601,-0.8065,0.2801,0.1412,30.06,-2.02,1.1,
921,1661544200602,-0.7532,-0.0202,-0.519,32.85,-12.51,-3.28,
922,1661544200602,-0.7957,0.2308,0.0934,31.75,5.68,1.81,
923,1661544200603,-0.8953,0.4305,-0.1156,34.85,-2.77,-1.74,
924,1661544200603,-0.827,-0.0666,-0.5941,35.36,-0.74,-1.47,
925,1661544200603,-0.9256,0.0028,-0.4081,28.44,-4.8,-4.2,
926,1661544200605,-0.8704,0.3275,0.0572,28.55,-15.21,0.46,
927,1661544200605,-0.9285,0.1615,-0.3158,31.43,-25.19,-6.47,
928,1661544200606,-1.0462,0.1976,-0.1049,32.65,-17.4,-2.64,
929,1661544200606,-0.9827,-0.0485,0.2555,28.95,-3.87,-0.55,
930,1661544200607,-1.0047,0.077,0.1002,25.64,-5.73,-0.37,
931,1661544200607,-1.0521,-0.0251,-0.0356,27.44,-7.59,-3.19,
932,1661544200608,-1.0233,-0.1461,0.2188,24.35,-9.04,-2.29,
933,1661544200608,-0.9822,-0.0221,0.2867,23.06,-6.92,-0.0,
934,1661544200609,-1.1434,-0.0646,-0.0087,23.04,-7.52,-1.74,
935,1661544200609,-1.1282,-0.2477,-0.1357,22.86,-15.37,-3.01,
936,1661544200609,-1.1458,-0.0304,0.3268,20.05,-6.83,-4.29,
937,1661544200610,-1.2073,-0.1593,-0.0224,18.54,-15.97,-2.02,
938,1661544200610,-1.1844,-0.1701,-0.0702,13.86,-12.93,-4.47,
939,1661544200611,-1.2557,0.1112,0.7413,17.64,3.39,-5.3,
940,1661544200612,-1.2928,0.0052,0.0587,20.95,-10.14,-10.85,
941,1661544200612,-1.2444,0.0555,0.2423,17.56,2.97,-9.13,
942,1661544200612,-1.2747,0.1239,0.5758,17.06,6.52,-3.37,
943,1661544200613,-1.1732,0.1581,0.421,12.35,7.21,-1.74,
944,1661544200613,-1.0867,0.4364,-0.2221,12.65,-3.79,-0.92,
945,1661544200613,-1.1136,0.3148,-0.0634,15.84,4.32,-1.74,
946,1661544200613,-1.1614,0.1688,0.2628,22.05,5.26,-1.01,
947,1661544200614,-1.2913,0.3192,0.15,20.95,-0.5,-7.57,
948,1661544200614,-1.117,0.4613,-0.123,19.36,-8.36,-4.93,
949,1661544200615,-1.1243,0.1888,0.2164,15.85,-4.22,-3.37,
950,1661544200615,-1.0447,0.3788,0.2926,15.37,-9.79,-2.73,
951,1661544200615,-1.0042,0.2718,-0.0009,17.14,-10.48,-2.29,
952,1661544200616,-1.0853,0.2772,0.4967,21.44,5.76,-7.48,
953,1661544200617,-1.1746,0.2772,0.5323,17.75,7.38,-4.11,
954,1661544200617,-1.0975,0.0658,0.129,19.04,5.51,-2.55,
955,1661544200617,-1.0272,0.2289,0.107,17.75,6.86,-1.65,
956,1661544200618,-1.0711,0.2381,0.2452,17.96,7.12,-4.11,
957,1661544200618,-0.9036,0.0755,-0.185,15.85,-6.49,-7.66,
958,1661544200619,-0.8948,0.1747,-0.1562,19.96,-9.45,-2.11,
959,1661544200620,-1.0672,0.2206,0.2057,27.83,-7.85,-3.47,
960,1661544200620,-0.9744,-0.1012,0.0509,29.25,-2.44,-1.1,
961,1661544200620,-0.9158,0.3495,0.0372,20.46,10.24,-4.2,
962,1661544200621,-0.7493,0.4271,0.1661,19.35,11.34,-2.2,
963,1661544200622,-0.8856,-0.1276,0.0396,20.75,9.07,0.91,
964,1661544200622,-0.7859,0.0623,-0.0141,23.76,3.15,7.38,
965,1661544200623,-0.8157,0.4886,0.0343,29.45,1.87,2.18,
966,1661544200623,-0.8113,0.6209,-0.0097,31.94,3.32,5.28,
967,1661544200623,-0.7303,0.1019,-0.5258,36.06,5.51,8.02,
968,1661544200624,-0.6468,-0.0163,-0.4286,27.24,15.92,12.86,
969,1661544200625,-0.7117,0.6981,-0.057,23.15,1.7,5.55,
970,1661544200625,-0.6898,0.6195,-0.5321,30.75,-15.3,2.64,
971,1661544200627,-0.7791,0.0829,-0.1923,38.64,-11.83,1.1,
972,1661544200627,-0.7781,0.5218,0.1676,37.05,-6.75,3.74,
973,1661544200627,-0.7464,0.2606,-0.3266,37.35,-10.31,-2.83,
974,1661544200627,-0.8782,0.1102,-0.0609,30.55,-1.84,-3.1,
975,1661544200628,-0.8406,0.1356,0.1925,31.94,1.53,-9.13,
976,1661544200628,-0.8533,-0.0661,-0.0243,37.23,-3.96,-4.84,
977,1661544200628,-0.8812,0.0228,-0.2831,39.44,-6.92,-4.56,
978,1661544200629,-0.8939,-0.2521,0.0064,30.67,-3.11,0.27,
979,1661544200629,-0.8797,-0.0436,-0.016,24.34,-5.73,-1.38,
980,1661544200629,-0.9622,-0.0763,-0.371,26.46,-14.03,-1.83,
981,1661544200629,-1.1107,-0.4875,0.0846,29.95,-12.25,-2.73,
982,1661544200630,-1.0008,0.0145,0.2418,22.36,-10.9,0.36,
983,1661544200630,-0.9974,0.1707,0.047,19.15,-10.14,1.72,
984,1661544200632,-0.9661,-0.0617,-0.1635,26.73,-5.49,0.64,
985,1661544200632,-1.138,-0.2077,0.3243,27.76,7.28,5.46,
986,1661544200632,-1.0325,0.1229,0.1705,22.75,1.29,3.19,
987,1661544200632,-1.0989,0.2484,-0.1674,20.16,-6.42,7.02,
988,1661544200633,-1.1448,0.1698,0.0411,20.46,-4.05,1.54,
989,1661544200633,-1.1199,-0.0172,0.2501,19.85,-3.46,2.09,
990,1661544200634,-1.056,0.2225,-0.1742,21.94,-10.72,-0.19,
991,1661544200634,-1.1854,0.3441,-0.2226,24.54,-12.41,1.36,
992,1661544200634,-1.1756,0.0868,0.3028,21.26,-3.79,2.27,
993,1661544200635,-1.2093,0.2474,0.3141,17.96,-3.63,-3.19,
994,1661544200635,-1.2361,0.3304,0.0899,15.96,-10.9,-1.92,
995,1661544200637,-1.2474,0.1043,0.0934,20.65,-10.22,-2.02,
996,1661544200637,-1.1956,0.0873,0.5538,21.84,0.27,-2.29,
997,1661544200637,-1.1844,0.1224,0.1866,17.66,1.29,-5.94,
998,1661544200638,-1.2318,0.0331,-0.1161,19.44,1.36,-6.75,
999,1661544200638,-1.1688,-0.0631,0.3077,20.25,5.94,-8.76,
1000,1661544200639,-1.1634,-0.0363,0.464,14.04,3.23,-2.47,
1001,1661544200639,-1.1824,0.1068,-0.0639,12.56,-13.6,-4.75,
1002,1661544200640,-1.0384,-0.0329,-0.1117,13.84,-6.33,-1.28,
1003,1661544200640,-1.2493,-0.028,0.6251,16.04,3.49,-4.84,
1004,1661544200641,-1.0726,0.0985,0.0816,17.98,-7.67,-1.92,
1005,1661544200641,-1.1136,0.1024,0.297,14.34,1.29,0.27,
1006,1661544200642,-1.1102,0.2245,0.6524,15.37,7.38,-3.37,
1007,1661544200642,-1.1663,0.1971,0.4273,15.06,4.92,-1.28,
1008,1661544200642,-0.9173,0.4183,-0.0409,15.15,8.47,-2.2,
1009,1661544200643,-1.0042,0.3504,0.1256,21.36,8.55,-1.38,
1010,1661544200643,-0.9647,0.3236,0.1866,22.45,15.16,-0.19,
1011,1661544200644,-1.0047,0.3866,0.0265,23.24,-1.17,-2.38,
1012,1661544200644,-0.9378,0.5843,-0.3412,21.65,-5.15,-0.09,
1013,1661544200644,-0.8812,0.4168,-0.1317,23.16,-4.8,1.19,
1014,1661544200644,-0.8484,0.4798,0.0675,23.24,3.32,-1.56,
1015,1661544200646,-0.8465,0.4979,-0.2274,22.86,-3.87,-2.64,
1016,1661544200646,-0.8314,0.4867,-0.1986,28.24,-2.36,-3.74,
1017,1661544200647,-0.8431,0.3368,0.2218,29.24,0.77,-3.65,
1018,1661544200647,-0.8148,0.2635,0.0816,30.24,-1.5,-4.93,
1019,1661544200647,-0.7762,0.2142,-0.1293,28.46,1.36,1.36,
1020,1661544200647,-0.8069,0.1688,-0.0097,30.55,6.95,1.72,
1021,1661544200647,-0.7693,0.035,-0.184,30.73,4.49,2.55,
1022,1661544200649,-0.7591,0.0013,-0.2348,28.86,4.66,4.38,
1023,1661544200649,-0.783,0.1117,-0.1845,29.04,-2.86,-0.19,
1024,1661544200649,-0.6566,0.034,-0.2773,33.14,-12.08,1.36,
1025,1661544200649,-0.9412,-0.0529,-0.0233,32.26,-10.05,2.55,
1026,1661544200650,-0.7513,0.0882,-0.1464,28.05,-16.06,4.65,
1027,1661544200650,-0.8397,-0.0216,0.0611,25.24,4.49,7.02,
1028,1661544200651,-0.7664,0.183,0.1905,28.24,9.24,-0.64,
1029,1661544200651,-0.803,0.1053,-0.1039,33.34,-2.86,2.91,
1030,1661544200652,-0.8196,0.0057,-0.0478,33.25,-1.67,3.19,
1031,1661544200652,-0.9564,0.3167,0.109,30.56,-10.29,1.63,
1032,1661544200653,-0.9051,0.0433,-0.2099,30.64,-3.87,-0.83,
1033,1661544200653,-0.9417,0.0164,-0.3051,29.54,-0.33,2.09,
1034,1661544200653,-0.89,0.1981,-0.1991,24.54,1.12,1.1,
1035,1661544200654,-0.9319,0.2079,-0.1239,26.84,-11.15,-3.47,
1036,1661544200654,-0.97,0.2704,-0.2089,29.34,-17.76,-3.83,
1037,1661544200655,-0.9793,0.0746,-0.0702,29.83,-15.04,-1.1,
1038,1661544200655,-0.9852,0.0882,0.1417,25.44,-4.89,-4.66,
1039,1661544200657,-1.056,0.0995,0.0157,24.95,-7.09,-2.11,
1040,1661544200657,-1.0311,-0.0138,-0.0336,24.26,-9.45,0.82,
1041,1661544200657,-1.0023,-0.0192,0.214,25.04,-6.42,-0.46,
1042,1661544200657,-1.1072,0.0726,0.1886,23.94,-9.12,-2.02,
1043,1661544200658,-1.1312,-0.1999,-0.1327,22.03,-12.67,-0.37,
1044,1661544200658,-1.1434,-0.0783,0.2965,22.46,-4.89,-5.94,
1045,1661544200659,-1.2674,-0.0734,0.1798,19.35,-9.29,-2.55,
1046,1661544200660,-1.0965,-0.2345,-0.1483,14.47,-17.24,0.36,
1047,1661544200660,-1.2601,0.0497,0.5641,12.47,-3.46,-0.28,
1048,1661544200661,-1.2015,0.0692,0.5196,16.16,-4.22,-1.1,
1049,1661544200661,-1.3167,-0.1237,0.0274,17.85,-0.57,0.64,
1050,1661544200662,-1.2762,0.1341,0.4688,15.56,1.2,-3.74,
1051,1661544200662,-1.244,0.0794,0.4493,13.64,5.18,-0.73,
1052,1661544200663,-1.0726,0.3504,0.0157,13.44,7.04,-4.38,
1053,1661544200663,-1.1351,0.4159,-0.1274,12.56,-1.43,-3.28,
1054,1661544200663,-1.1331,0.1014,0.1275,18.07,4.68,-2.47,
1055,1661544200665,-1.2278,0.2689,0.2052,16.04,0.94,-8.12,
1056,1661544200665,-1.0735,0.4974,-0.1816,19.36,-2.6,-6.47,
1057,1661544200665,-1.1268,0.202,0.0909,18.14,1.46,-9.77,
1058,1661544200665,-1.139,0.304,0.2857,17.44,5.09,-5.75,
1059,1661544200665,-1.0438,0.4149,0.0704,15.06,-6.66,-0.73,
1060,1661544200665,-1.0892,0.2987,0.1139,17.85,-6.33,-3.01,
1061,1661544200666,-1.16,0.4315,0.4654,24.86,-1.43,-3.83,
1062,1661544200666,-1.0648,0.0877,0.109,24.54,1.53,-5.11,
1063,1661544200667,-1.0262,0.2826,0.1773,15.96,4.49,-0.19,
1064,1661544200667,-1.0359,0.4188,0.2686,16.27,14.73,-2.29,
1065,1661544200668,-1.0052,0.141,0.0387,22.65,12.61,6.28,
1066,1661544200668,-0.8675,0.2069,-0.1127,24.45,8.31,-0.19,
1067,1661544200668,-1.0418,0.2406,0.0851,22.45,-7.76,1.0,
1068,1661544200669,-0.9739,0.0462,0.0958,23.35,-19.02,0.55,
1069,1661544200670,-0.971,-0.027,0.0567,26.44,-12.58,0.82,
1070,1661544200670,-0.8084,0.3275,0.0655,25.45,0.69,3.64,
1071,1661544200670,-0.763,0.2342,0.1114,25.16,11.34,-0.0,
1072,1661544200672,-0.8548,0.1634,0.1695,26.15,24.54,3.64,
1073,1661544200672,-0.7596,0.0614,-0.1596,24.74,9.91,1.19,
1074,1661544200673,-0.8782,0.2567,0.0826,24.46,14.82,2.73,
1075,1661544200673,-0.7425,0.7479,0.2354,29.25,1.46,1.72,
1076,1661544200673,-0.6605,-0.047,-0.456,35.55,-0.83,1.91,
1077,1661544200674,-0.6736,0.3954,-0.3026,31.36,3.82,1.28,
1078,1661544200674,-0.7025,0.7298,-0.2177,31.04,0.01,0.46,
1079,1661544200674,-0.6824,0.4906,-0.4545,32.75,-6.33,-4.2,
1080,1661544200674,-0.8489,0.2474,-0.2738,34.75,-4.89,1.0,
1081,1661544200676,-0.7103,0.3705,-0.1796,34.85,-7.52,-0.83,
1082,1661544200676,-0.7816,0.2909,-0.2055,35.63,-10.39,-0.83,
1083,1661544200677,-0.8621,0.3148,0.024,37.54,-10.48,-2.73,
1084,1661544200677,-0.8484,-0.1188,-0.0019,35.54,-8.45,2.27,
1085,1661544200677,-0.8426,-0.0822,0.0499,32.14,-5.56,-0.73,
1086,1661544200677,-0.9559,0.076,0.0367,32.65,-6.83,0.64,
1087,1661544200679,-0.9827,-0.278,0.0045,32.24,-5.73,-2.73,
1088,1661544200679,-0.8431,0.014,-0.0546,29.76,-8.45,-2.38,
1089,1661544200679,-1.0618,-0.1481,-0.0644,28.35,-4.98,3.46,
1090,1661544200680,-1.0413,-0.4508,-0.0399,27.96,-9.12,2.18,
1091,1661544200680,-1.0027,-0.0602,0.1793,23.76,-8.28,1.63,
1092,1661544200681,-0.9315,0.118,0.046,18.34,-18.59,-0.09,
1093,1661544200681,-0.9105,-0.0724,-0.2445,25.83,-19.6,4.19,
1094,1661544200682,-1.0613,-0.2633,0.2833,27.76,-0.83,3.19,
1095,1661544200682,-0.9974,0.0248,0.1026,23.56,1.46,4.47,
1096,1661544200682,-1.118,0.2308,-0.0312,22.05,7.21,-3.37,
1097,1661544200682,-1.1917,0.0057,0.2227,18.54,6.78,-3.28,
1098,1661544200683,-1.0984,-0.0568,0.1905,19.55,-5.99,-3.65,
1099,1661544200683,-1.0242,0.2743,-0.0683,20.55,-17.07,-9.77,
1100,1661544200684,-1.1531,0.3919,-0.1674,23.76,-12.34,-8.85,
1101,1661544200684,-1.1844,0.0418,0.2242,20.16,-0.07,-4.47,
1102,1661544200685,-1.2757,0.2035,0.3658,17.84,0.6,-5.57,
1103,1661544200685,-1.2762,0.2381,-0.0463,15.44,-8.62,-7.94,
1104,1661544200686,-1.2137,0.1815,0.0426,19.75,-9.45,-7.11,
1105,1661544200686,-1.1722,0.2259,0.5816,17.37,-7.35,-7.3,
1106,1661544200687,-1.1346,0.1219,0.0963,16.14,-5.91,-5.85,
1107,1661544200688,-1.1414,0.0785,-0.0561,17.55,8.47,-7.39,
1108,1661544200688,-1.1746,0.0902,0.4659,16.95,15.07,-1.01,
1109,1661544200689,-1.1712,0.0013,0.1685,12.76,3.32,-4.38,
1110,1661544200689,-1.1273,0.0682,-0.1254,9.55,-11.41,-2.73,
1111,1661544200689,-1.1341,0.0882,0.1471,11.86,-7.68,-1.1,
1112,1661544200690,-1.1458,-0.0734,0.4273,18.27,-4.98,1.36,
1113,1661544200690,-1.1077,0.0482,0.0997,15.56,-10.81,0.36,
1114,1661544200691,-1.0931,0.2601,0.3907,13.38,-5.04,0.18,
1115,1661544200691,-1.0535,0.1385,0.6002,15.75,6.61,1.0,
1116,1661544200691,-1.1053,0.0824,0.3165,13.38,13.56,-0.73,
1117,1661544200691,-0.9905,0.4491,-0.0561,17.64,12.87,-0.28,
1118,1661544200692,-1.034,0.179,0.1959,16.86,13.89,3.19,
1119,1661544200692,-1.0208,0.3558,0.1261,18.27,3.56,0.82,
1120,1661544200693,-0.9417,0.3646,-0.1566,22.54,-2.36,-2.38,
1121,1661544200693,-0.9217,0.4808,-0.3261,24.16,5.68,-5.3,
1122,1661544200695,-0.9046,0.5164,-0.1435,24.16,0.1,-3.92,
1123,1661544200695,-0.8382,0.2679,-0.1874,19.85,-8.36,-4.29,
1124,1661544200695,-0.8714,0.556,-0.1049,23.16,-12.25,-2.47,
1125,1661544200696,-0.8338,0.4569,0.0431,32.64,-4.89,-5.11,
1126,1661544200696,-0.8616,0.2157,0.0538,34.26,3.49,-6.12,
1127,1661544200697,-0.8226,0.3089,0.1046,30.75,5.85,-5.3,
1128,1661544200697,-0.8465,0.3075,0.1559,26.34,3.06,-5.57,
1129,1661544200698,-0.8421,0.1581,-0.0614,25.96,-0.74,-4.38,
1130,1661544200698,-0.7816,0.0965,-0.1469,30.14,-3.63,-2.2,
1131,1661544200699,-0.8143,0.1131,-0.0907,29.95,3.39,-0.73,
1132,1661544200699,-0.7352,0.2259,-0.1806,30.64,-4.39,-5.57,
1133,1661544200700,-0.7259,0.0936,-0.2685,34.24,-3.63,-0.83,
1134,1661544200700,-0.9002,-0.0446,-0.1039,29.63,-6.16,-1.65,
1135,1661544200700,-0.7928,0.0951,-0.1425,28.06,-12.75,1.28,
1136,1661544200701,-0.846,0.0506,0.0392,30.46,-7.35,-0.73,
1137,1661544200701,-0.8001,0.1956,-0.0126,34.55,-7.59,4.01,
1138,1661544200701,-0.846,-0.1081,-0.0663,32.44,-0.57,2.45,
1139,1661544200702,-0.9022,-0.0158,-0.0277,29.24,-6.25,0.82,
1140,1661544200702,-0.9466,0.1913,0.1246,31.56,10.93,0.36,
1141,1661544200703,-0.9266,0.1263,-0.1391,32.15,3.06,-1.28,
1142,1661544200704,-0.8651,0.0467,-0.5141,29.85,0.01,-2.83,
1143,1661544200704,-0.8939,0.1498,-0.0268,26.86,-4.63,-4.29,
1144,1661544200705,-0.9583,0.2757,-0.161,28.95,-14.96,-1.38,
1145,1661544200705,-0.9529,0.2396,-0.3539,28.15,-22.65,-2.55,
1146,1661544200705,-1.0237,0.077,-0.1151,27.65,-10.81,-1.65,
1147,1661544200706,-1.0003,0.2103,0.2667,23.55,-6.59,-8.67,
1148,1661544200707,-1.0218,0.1502,-0.0111,25.74,-10.55,-3.83,
1149,1661544200707,-1.0486,0.0501,0.1305,26.46,-8.36,-9.04,
1150,1661544200708,-1.0609,0.0785,0.3668,25.94,-2.86,-8.3,
1151,1661544200708,-1.1414,-0.071,0.0372,24.64,-7.94,-10.13,
1152,1661544200709,-1.1624,-0.0861,0.0616,23.06,-4.56,-11.03,
1153,1661544200709,-1.2181,-0.0807,0.1949,18.54,-7.09,-13.78,
1154,1661544200709,-1.1404,-0.1208,0.0821,17.06,-11.07,-4.84,
1155,1661544200710,-1.2225,-0.1657,0.0045,17.06,-5.73,-3.83,
1156,1661544200710,-1.1951,-0.0651,0.2794,16.25,-5.15,-0.92,
1157,1661544200711,-1.282,-0.0348,0.3141,13.84,-6.83,-3.83,
1158,1661544200711,-1.2762,0.0648,0.2916,15.26,-10.9,-1.1,
1159,1661544200712,-1.2322,-0.0553,0.3277,15.76,-2.27,-1.83,
1160,1661544200712,-1.1248,0.2782,0.3463,13.26,12.87,-1.28,
1161,1661544200712,-1.0853,0.3499,0.0753,15.75,5.26,-4.47,
1162,1661544200712,-1.1898,0.0423,0.0479,16.27,14.64,-0.64,
1163,1661544200713,-1.2376,0.2376,0.4151,17.24,7.04,-2.92,
1164,1661544200713,-1.0267,0.4027,-0.144,18.46,-2.95,-11.13,
1165,1661544200714,-1.0584,0.3192,-0.1796,20.55,-2.02,-1.56,
1166,1661544200714,-1.0228,0.3436,0.1173,14.54,1.96,-5.85,
1167,1661544200715,-0.9935,0.2542,0.0479,12.67,-1.84,-2.47,
1168,1661544200716,-1.0906,0.3831,0.1446,15.96,-1.6,-8.39,
1169,1661544200716,-1.096,0.5423,0.2481,21.85,-5.82,-8.49,
1170,1661544200717,-1.0003,0.1209,0.1573,22.65,-3.29,-3.56,
1171,1661544200717,-0.9881,0.409,0.3443,18.56,1.53,-3.83,
1172,1661544200717,-1.035,0.4818,0.2569,17.14,1.62,-1.56,
1173,1661544200718,-1.0032,0.1522,0.0011,22.25,5.94,-5.02,
1174,1661544200718,-0.9349,0.2801,0.088,22.45,7.04,-4.56,
1175,1661544200719,-1.0135,0.1922,-0.0409,21.96,-3.87,-4.11,
1176,1661544200719,-0.9651,0.0062,-0.1342,24.55,-12.17,-5.48,
1177,1661544200719,-0.9959,0.1151,0.089,25.56,-7.09,-4.84,
1178,1661544200719,-0.9393,0.1009,0.0416,25.74,1.62,-0.55,
1179,1661544200720,-0.7493,0.1786,-0.0639,21.45,5.09,0.09,
1180,1661544200720,-0.8958,0.2884,0.3097,25.06,11.86,3.28,
1181,1661544200721,-0.8069,-0.0836,-0.0702,27.85,-6.42,8.94,
1182,1661544200721,-0.9349,0.347,0.0318,24.34,-0.16,3.19,
1183,1661544200723,-0.7127,0.6112,0.1969,28.73,3.49,5.92,
1184,1661544200723,-0.8094,0.1478,-0.0243,30.95,11.01,3.28,
1185,1661544200723,-0.657,0.265,-0.2304,28.55,15.23,-2.55,
1186,1661544200724,-0.7142,0.5706,-0.3764,31.16,4.75,-2.64,
1187,1661544200724,-0.763,0.4666,-0.0849,29.74,0.69,-3.56,
1188,1661544200725,-0.8538,0.3783,-0.0971,33.63,-15.63,-4.2,
1189,1661544200725,-0.7025,0.2181,-0.4574,33.16,-14.79,-4.84,
1190,1661544200726,-0.7508,0.3831,-0.1816,34.04,-6.16,-3.47,
1191,1661544200726,-0.8323,0.4911,-0.0024,36.84,-8.62,-4.38,
1192,1661544200726,-0.8655,-0.13,-0.2069,35.74,-9.62,1.19,
1193,1661544200726,-0.869,0.1585,0.1324,30.66,-6.42,-6.03,
1194,1661544200728,-0.9681,-0.0309,0.0528,32.47,-12.57,-3.28,
1195,1661544200728,-0.9188,-0.1974,-0.1562,31.14,-9.12,-3.19,
1196,1661544200729,-0.8709,0.0526,0.1056,28.93,0.86,1.91,
1197,1661544200729,-0.9832,-0.0915,0.0982,26.54,0.36,0.55,
1198,1661544200729,-1.0408,-0.3102,-0.1606,28.55,-8.95,-3.92,
1199,1661544200730,-1.0477,-0.2336,0.0909,27.15,-11.65,-0.64,
1200,1661544200730,-0.9368,-0.0011,0.0577,23.56,-21.3,-0.92,
1201,1661544200731,-1.0731,-0.1139,-0.1874,21.36,-11.41,6.83,
1202,1661544200731,-1.1439,-0.2438,0.2169,23.87,6.7,5.73,
1203,1661544200731,-1.0613,-0.1608,0.2369,24.93,1.62,5.37,
1204,1661544200732,-1.1639,0.2025,0.1095,18.54,1.2,-0.64,
1205,1661544200733,-1.2,0.0453,0.089,17.55,-14.2,3.37,
1206,1661544200733,-1.1536,-0.0431,0.2032,17.67,-6.81,0.46,
1207,1661544200734,-1.137,0.3309,0.0577,20.55,-3.87,-1.56,
1208,1661544200734,-1.1307,0.3289,-0.1649,21.45,-3.29,-1.1,
1209,1661544200734,-1.1107,0.1566,-0.0341,21.65,1.46,-4.38,
1210,1661544200734,-1.2708,0.179,0.4015,17.15,-2.19,-3.65,
1211,1661544200736,-1.2508,0.1922,-0.0424,15.75,-17.16,-7.39,
1212,1661544200736,-1.2449,0.242,0.1754,19.36,-11.83,-6.12,
1213,1661544200736,-1.1478,0.3368,0.4664,18.86,4.66,-10.39,
1214,1661544200737,-1.1102,0.0941,-0.0697,17.75,8.47,-5.94,
1215,1661544200737,-1.1385,0.0995,-0.0649,16.56,9.82,-9.49,
1216,1661544200737,-1.1619,0.1546,0.399,18.66,5.85,-7.3,
1217,1661544200737,-1.1004,0.0594,0.2193,18.56,-3.29,-6.84,
1218,1661544200738,-1.0711,0.1073,-0.1425,16.05,-9.04,-10.32,
1219,1661544200738,-1.2059,0.0248,0.1925,17.24,-0.24,-8.3,
1220,1661544200740,-1.1336,-0.0705,0.2452,15.66,-2.27,-3.65,
1221,1661544200740,-1.1541,0.0394,0.151,15.64,-4.05,-2.2,
1222,1661544200740,-1.136,0.1654,0.1627,15.75,-1.0,-2.11,
1223,1661544200740,-1.0941,0.0575,0.5245,17.76,8.05,-2.38,
1224,1661544200742,-1.0692,0.2284,0.358,13.75,5.09,-3.56,
1225,1661544200742,-0.9637,0.2962,0.0406,16.56,-3.46,-0.55,
1226,1661544200742,-1.1019,0.2201,0.254,17.76,8.47,3.37,
1227,1661544200743,-1.0335,0.3226,0.3453,23.96,12.44,-0.73,
1228,1661544200743,-0.9564,0.1996,-0.0546,24.26,14.3,3.46,
1229,1661544200743,-0.8973,0.6878,0.0064,20.46,9.74,-4.38,
1230,1661544200743,-0.8177,0.5116,-0.2895,23.45,-2.69,2.55,
1231,1661544200744,-0.804,0.2245,-0.3437,22.86,-6.08,2.64,
1232,1661544200744,-0.8851,0.4911,-0.1518,24.86,-3.37,-1.01,
1233,1661544200746,-0.7586,0.5316,-0.0946,29.36,-3.03,1.45,
1234,1661544200746,-0.7693,0.3768,-0.059,30.08,7.73,0.36,
1235,1661544200746,-0.7015,0.452,-0.0072,30.64,0.1,-1.92,
1236,1661544200746,-0.7601,0.2069,0.0631,27.07,-1.15,-2.02,
1237,1661544200747,-0.7811,0.287,0.0494,31.36,-3.63,-5.3,
1238,1661544200747,-0.7889,0.285,-0.1005,34.75,-1.84,-5.57,
1239,1661544200747,-0.7835,0.0775,-0.1127,29.56,-1.43,-4.75,
1240,1661544200749,-0.7313,0.2757,-0.161,32.33,-3.87,-3.37,
1241,1661544200749,-0.7962,-0.0602,-0.2104,35.26,-2.01,2.45,
1242,1661544200750,-0.7879,0.1151,-0.2309,33.65,-6.42,-2.64,
1243,1661544200750,-0.8211,-0.0041,-0.1327,29.05,-8.62,-0.92,
1244,1661544200751,-0.8309,-0.1256,-0.08,30.26,-7.68,-1.65,
1245,1661544200751,-0.6902,0.0677,-0.1317,33.25,-4.13,1.72,
1246,1661544200751,-0.9061,0.0077,0.0699,30.55,1.96,3.55,
1247,1661544200752,-0.908,-0.0876,-0.1098,27.96,-10.64,2.27,
1248,1661544200752,-0.9612,0.0565,0.0885,27.85,-0.24,3.92,
1249,1661544200753,-1.0018,0.1043,0.0318,31.74,0.69,-4.75,
1250,1661544200753,-0.9183,0.0282,-0.2343,30.85,-1.5,-5.39,
1251,1661544200754,-0.8821,0.0902,-0.1532,26.64,-1.17,-4.66,
1252,1661544200754,-0.9544,0.2689,-0.0058,26.64,-9.71,-3.74,
1253,1661544200754,-0.9134,0.1673,-0.2851,28.53,-18.69,-4.47,
1254,1661544200754,-1.0755,0.0726,-0.1093,27.85,-7.76,5.46,
1255,1661544200755,-1.0047,0.2455,0.171,24.86,-7.52,1.81,
1256,1661544200755,-1.0208,0.1961,-0.0614,28.37,-9.87,-5.02,
1257,1661544200757,-1.0433,0.1136,-0.0834,26.03,-13.18,-1.01,
1258,1661544200757,-1.0526,0.0326,0.1158,23.15,-9.71,2.09,
1259,1661544200758,-1.095,0.0482,0.2623,26.03,-8.95,-0.55,
1260,1661544200758,-1.2161,-0.0177,0.106,23.56,-8.45,-5.66,
1261,1661544200758,-1.2259,-0.1432,0.1256,20.26,-8.87,-1.65,
1262,1661544200758,-1.1317,-0.1129,0.275,17.24,-8.19,-3.19,
1263,1661544200759,-1.2068,-0.0207,0.3038,17.56,-6.49,-1.56,
1264,1661544200759,-1.2293,-0.1027,0.005,19.14,-13.51,-1.83,
1265,1661544200759,-1.2454,-0.1335,0.3136,14.65,-3.79,-1.01,
1266,1661544200760,-1.2972,0.1175,0.4947,11.78,-6.74,-2.02,
1267,1661544200760,-1.2249,-0.1554,-0.0126,15.37,-5.15,1.28,
1268,1661544200761,-1.2059,0.0907,0.4684,18.27,12.44,-1.38,
1269,1661544200761,-1.1458,0.2777,0.1436,14.05,2.05,-3.37,
1270,1661544200762,-1.1785,0.097,0.0548,12.76,0.01,-3.56,
1271,1661544200762,-1.2615,0.0814,0.2354,12.94,-8.69,-5.39,
1272,1661544200763,-1.1258,0.2733,0.252,17.64,-2.69,-3.74,
1273,1661544200763,-1.032,0.4188,0.1519,18.46,8.55,-6.21,
1274,1661544200764,-1.0447,0.3607,-0.1708,18.36,10.75,-4.29,
1275,1661544200765,-0.9769,0.1346,-0.1723,15.35,6.11,-1.28,
1276,1661544200765,-1.119,0.2972,0.4254,13.46,3.23,-4.47,
1277,1661544200766,-1.0374,0.7337,0.1153,17.96,-11.07,-9.68,
1278,1661544200766,-1.0013,0.2113,-0.1308,20.66,-9.71,-5.94,
1279,1661544200767,-0.9842,0.4354,0.5079,16.65,3.9,-7.11,
1280,1661544200767,-0.9334,0.3812,0.0128,19.55,2.72,-10.32,
1281,1661544200768,-0.9222,0.1922,-0.245,25.24,12.37,-8.94,
1282,1661544200768,-0.9363,0.3348,0.0733,25.06,8.98,-8.58,
1283,1661544200768,-0.9778,0.1786,0.1226,23.45,-7.52,-7.11,
1284,1661544200769,-0.9378,0.0472,-0.2314,23.36,-19.27,-4.11,
1285,1661544200769,-0.973,0.2201,0.1056,23.35,-4.72,-6.84,
1286,1661544200769,-0.8968,-0.047,0.0377,26.64,1.2,-1.28,
1287,1661544200770,-0.7503,0.036,-0.0878,24.25,4.42,-5.21,
1288,1661544200770,-0.9109,0.2664,0.0909,26.15,3.15,1.45,
1289,1661544200770,-0.8328,0.036,0.2667,26.64,4.25,0.09,
1290,1661544200772,-0.8504,0.1483,-0.0463,25.04,2.72,-3.37,
1291,1661544200772,-0.6644,0.3573,-0.0883,23.19,3.41,-1.65,
1292,1661544200772,-0.7249,0.2894,0.047,26.86,16.76,3.46,
1293,1661544200773,-0.7073,0.2606,-0.018,30.47,15.25,1.81,
1294,1661544200773,-0.7244,0.3236,-0.7611,31.43,-2.1,-0.19,
1295,1661544200773,-0.7376,0.5775,-0.0668,28.55,0.94,0.91,
1296,1661544200775,-0.8382,0.3773,-0.2797,34.65,-15.97,-8.67,
1297,1661544200775,-0.6888,-0.0124,-0.6518,35.55,-7.76,0.91,
1298,1661544200775,-0.741,0.2406,-0.3949,31.27,-2.76,-6.75,
1299,1661544200776,-0.7986,0.5838,0.0582,32.67,-6.65,-1.92,
1300,1661544200776,-0.8709,0.0096,-0.2255,34.64,-19.78,-2.73,
1301,1661544200776,-0.9525,0.1629,0.107,34.94,-8.95,-0.0,
1302,1661544200777,-0.9212,0.0335,0.2262,32.26,-5.91,-1.47,
1303,1661544200778,-0.9222,0.0101,-0.12,30.44,-4.05,-1.28,
1304,1661544200778,-0.9315,0.0018,0.0343,28.95,-6.59,-0.46,
1305,1661544200778,-0.9984,-0.1471,0.1036,25.25,-2.95,0.09,
1306,1661544200779,-1.015,-0.111,0.0182,28.96,-10.46,1.0,
1307,1661544200779,-1.0237,-0.1461,-0.1396,27.56,-13.1,-1.47,
1308,1661544200781,-0.9363,-0.1501,-0.0419,22.66,-16.4,-0.28,
1309,1661544200781,-0.9813,-0.0128,-0.0243,20.84,-9.97,-3.92,
1310,1661544200781,-1.1028,-0.2453,-0.0072,23.26,-5.32,1.81,
1311,1661544200781,-1.0858,-0.1139,0.1021,24.26,-7.18,0.46,
1312,1661544200782,-1.1683,0.1483,0.4122,21.65,-4.22,2.82,
1313,1661544200782,-1.1741,0.0702,0.2887,18.34,-11.83,-2.73,
1314,1661544200783,-1.2171,-0.0387,0.065,19.76,0.19,-0.37,
1315,1661544200783,-1.1707,0.1649,0.3878,20.75,4.08,-2.83,
1316,1661544200784,-1.1146,0.2386,-0.0287,19.84,1.96,-5.21,
1317,1661544200784,-1.1463,0.2669,0.0372,19.64,1.79,1.36,
1318,1661544200785,-1.2684,0.2381,0.2232,19.85,2.89,-1.47,
1319,1661544200785,-1.2357,0.1263,0.1139,21.56,-5.99,-6.12,
1320,1661544200785,-1.2518,0.2459,-0.0248,20.46,-11.15,-1.47,
1321,1661544200786,-1.1248,0.4666,0.2061,15.66,-7.52,-6.75,
1322,1661544200786,-1.1199,0.1458,0.0406,18.95,-1.26,-3.1,
1323,1661544200787,-1.1561,0.1092,0.0362,17.56,2.46,-9.86,
1324,1661544200787,-1.1741,0.201,0.1895,18.14,-1.34,-4.66,
1325,1661544200788,-1.1297,0.1429,0.2545,18.14,-0.83,-4.56,
1326,1661544200788,-1.1375,0.1253,0.2042,17.76,-1.5,-6.3,
1327,1661544200788,-1.1458,0.055,0.1476,14.66,3.65,-3.47,
1328,1661544200788,-1.0882,0.0042,0.2506,16.16,1.7,-10.23,
1329,1661544200790,-1.14,0.1375,0.3126,13.75,-1.17,-9.58,
1330,1661544200790,-1.1644,0.1234,0.1856,15.55,-9.21,-8.94,
1331,1661544200790,-1.0628,0.0008,0.2159,18.74,-0.91,-6.21,
1332,1661544200790,-1.1028,0.2259,0.441,19.64,7.28,-8.12,
1333,1661544200791,-0.9066,0.1341,-0.037,15.76,-2.69,-2.47,
1334,1661544200792,-1.015,0.1371,0.0289,15.37,8.9,-0.37,
1335,1661544200792,-0.9964,0.3905,0.2193,24.74,7.71,-3.83,
1336,1661544200793,-0.9564,0.0457,-0.161,28.05,11.86,-3.28,
1337,1661544200793,-0.889,0.452,0.1212,24.95,16.67,-3.28,
1338,1661544200793,-0.8621,0.5931,-0.1913,23.56,-0.33,-3.56,
1339,1661544200794,-0.7899,0.2093,-0.3139,21.55,-6.25,3.1,
1340,1661544200795,-0.8533,0.3446,-0.2123,21.36,-8.28,-4.75,
1341,1661544200795,-0.7864,0.3802,-0.0819,27.96,-2.19,0.27,
1342,1661544200795,-0.825,0.4359,-0.0331,30.85,4.08,-5.94,
1343,1661544200796,-0.7205,0.6102,-0.0268,31.75,1.29,-1.83,
1344,1661544200796,-0.7654,0.1043,-0.0365,28.64,-0.74,-0.37,
1345,1661544200796,-0.7254,0.4671,0.0919,30.17,0.62,-0.09,
1346,1661544200797,-0.7479,0.5086,-0.0097,30.64,-2.86,2.0,
1347,1661544200797,-0.7191,0.1405,-0.2675,32.65,-3.2,-0.73,
1348,1661544200797,-0.7396,0.1844,-0.1562,33.34,-1.6,-0.73,
1349,1661544200798,-0.8021,0.0389,-0.1029,34.26,1.87,-1.01,
1350,1661544200799,-0.765,0.098,-0.2406,34.15,-7.42,5.55,
1351,1661544200800,-0.784,0.0785,-0.1303,29.76,-14.11,1.19,
1352,1661544200800,-0.8768,-0.1325,-0.0605,27.38,-11.9,0.46,
1353,1661544200801,-0.741,-0.069,-0.1845,32.55,-10.22,-1.92,
1354,1661544200801,-0.8968,0.0374,0.19,30.84,-2.69,1.28,
1355,1661544200801,-0.9485,-0.1022,0.129,29.65,-10.22,-4.2,
1356,1661544200802,-0.971,-0.0651,-0.0805,25.96,-4.56,-1.74,
1357,1661544200802,-0.9774,0.0394,0.1934,31.45,4.83,-3.56,
1358,1661544200803,-0.9798,0.0189,-0.123,31.25,2.97,-4.75,
1359,1661544200804,-0.9329,0.1424,-0.2314,27.05,0.19,-7.11,
1360,1661544200804,-0.91,0.1844,-0.1962,25.86,-7.75,-8.58,
1361,1661544200804,-0.9383,0.1781,-0.2094,28.46,-9.71,-8.12,
1362,1661544200804,-1.0565,0.0101,-0.2157,29.36,-7.01,-5.3,
1363,1661544200805,-0.9886,0.1996,-0.0673,23.97,-10.03,-2.64,
1364,1661544200805,-1.0501,0.2469,-0.0219,25.45,-17.66,-4.93,
1365,1661544200805,-1.0823,0.078,0.0846,25.06,-15.63,-1.74,
1366,1661544200807,-1.0799,0.1122,0.1759,26.75,-10.81,-5.02,
1367,1661544200807,-1.1014,0.1546,0.2486,23.96,-4.89,-4.2,
1368,1661544200808,-1.2293,0.0873,0.2652,21.36,-8.36,-8.49,
1369,1661544200808,-1.2508,-0.1007,0.2208,20.95,-7.18,-6.3,
1370,1661544200809,-1.138,-0.0959,0.2589,20.65,-7.01,-9.49,
1371,1661544200809,-1.2767,0.056,0.1168,18.27,-5.65,-9.04,
1372,1661544200809,-1.1981,-0.1442,-0.0326,18.27,-9.29,-8.49,
1373,1661544200810,-1.3001,-0.0749,0.3409,19.44,-3.96,-7.2,
1374,1661544200810,-1.2703,0.0682,0.3463,17.55,-8.52,-8.67,
1375,1661544200811,-1.1663,-0.088,-0.0644,15.06,-4.72,-7.48,
1376,1661544200811,-1.2884,-0.0441,0.3629,13.26,1.79,-7.85,
1377,1661544200812,-1.0833,0.1483,0.2628,12.47,-7.85,-2.02,
1378,1661544200812,-1.1585,0.1346,0.2164,13.35,-0.83,-2.11,
1379,1661544200813,-1.2274,0.1341,0.1861,18.45,1.29,-5.48,
1380,1661544200813,-1.1541,0.036,0.1202,21.26,16.76,-1.56,
1381,1661544200813,-1.0482,0.3578,0.3819,17.46,24.97,-8.58,
1382,1661544200814,-1.0789,0.4915,-0.0024,15.55,11.68,-7.66,
1383,1661544200814,-0.9285,0.0077,-0.1332,13.66,-1.76,-4.2,
1384,1661544200815,-1.1243,0.5623,0.3717,17.37,-1.34,-7.02,
1385,1661544200815,-1.0179,0.557,-0.08,21.04,-10.14,-5.3,
1386,1661544200816,-1.1199,0.1981,-0.0141,22.45,-0.41,-1.38,
1387,1661544200816,-0.9896,0.4359,0.2306,17.15,8.38,0.55,
1388,1661544200817,-0.9344,0.4608,0.0953,21.55,6.78,-1.74,
1389,1661544200817,-0.931,0.3573,0.025,24.05,7.38,-5.48,
1390,1661544200817,-0.9505,0.3558,0.0992,28.44,0.6,0.64,
1391,1661544200818,-0.9388,0.1371,0.0641,25.24,-8.62,0.64,
1392,1661544200818,-0.9271,0.1546,0.0587,22.75,-15.54,-1.1,
1393,1661544200818,-0.9402,0.368,0.0064,25.45,-6.08,-0.28,
1394,1661544200819,-0.8856,-0.1359,-0.0766,28.35,3.39,3.19,
1395,1661544200819,-0.7259,0.3011,-0.0024,26.44,4.32,-0.19,
1396,1661544200820,-0.7674,0.1375,0.024,27.65,-5.99,2.27,
1397,1661544200821,-0.8362,-0.0924,0.046,27.85,-2.36,6.01,
1398,1661544200821,-0.9349,0.0975,0.1358,27.16,5.76,2.64,
1399,1661544200822,-0.6658,0.3001,-0.1425,25.45,1.03,-1.19,
1400,1661544200822,-0.8206,0.1878,0.1178,28.06,13.54,-3.1,
1401,1661544200823,-0.7303,0.2196,-0.1444,27.96,4.66,-3.37,
1402,1661544200823,-0.6683,0.0999,-0.4721,28.66,-7.52,-2.29,
1403,1661544200824,-0.7376,0.4608,0.0392,30.06,1.2,-2.29,
1404,1661544200824,-0.8773,0.5326,-0.0985,37.17,-8.43,-1.19,
1405,1661544200824,-0.6341,-0.1042,-0.6713,34.84,-2.19,4.56,
1406,1661544200825,-0.7781,0.5589,-0.1195,31.05,-1.84,-4.02,
1407,1661544200825,-0.765,0.3983,-0.2494,31.85,-7.68,-0.28,
1408,1661544200826,-0.8548,0.0824,-0.3422,38.53,-16.73,-8.3,
1409,1661544200826,-0.9876,0.2337,0.0841,36.26,-8.36,-4.29,
1410,1661544200827,-0.8968,0.1014,0.026,34.26,-13.6,-7.75,
1411,1661544200827,-0.868,0.0926,-0.1103,30.53,-3.46,-6.47,
1412,1661544200828,-0.9153,0.0384,0.0064,31.65,-3.03,-7.11,
1413,1661544200828,-0.9534,-0.2482,-0.0097,30.06,-5.49,-5.39,
1414,1661544200828,-1.0286,-0.0216,0.0831,27.04,-12.51,-8.39,
1415,1661544200829,-1.0936,-0.2824,-0.0605,27.34,-13.68,-4.29,
1416,1661544200830,-0.8987,-0.11,-0.1239,27.76,-13.27,-5.21,
1417,1661544200830,-0.8904,0.0497,-0.0785,20.94,-3.46,-3.74,
1418,1661544200831,-1.0379,-0.2599,-0.1171,21.06,-9.38,0.27,
1419,1661544200831,-1.056,-0.2389,0.0157,22.93,-9.38,1.81,
1420,1661544200831,-1.244,0.0516,0.3868,20.36,-15.54,3.55,
1421,1661544200832,-1.1077,-0.0514,0.0924,21.84,-22.82,0.18,
1422,1661544200832,-1.2059,0.0282,0.3336,19.65,-5.65,0.18,
1423,1661544200833,-1.1609,0.0609,0.2061,21.76,2.97,1.45,
1424,1661544200833,-1.1297,0.0453,-0.0834,19.06,2.55,-2.02,
1425,1661544200834,-1.1741,0.3084,0.1832,18.77,11.19,-2.29,
1426,1661544200834,-1.264,0.2191,0.2975,23.45,6.52,-7.3,
1427,1661544200835,-1.18,0.0892,-0.0478,19.65,-8.78,-6.66,
1428,1661544200835,-1.262,0.3665,0.0645,15.95,-9.88,-6.56,
1429,1661544200835,-1.1336,0.4203,0.1583,15.28,-7.33,-8.94,
1430,1661544200836,-1.0984,0.1956,0.0919,17.84,-3.53,-8.76,
1431,1661544200837,-1.1409,0.3177,0.0748,18.16,-5.06,-7.57,
1432,1661544200837,-1.1277,0.2259,0.1158,18.34,-4.8,-5.48,
1433,1661544200837,-1.1429,0.2274,0.3404,17.44,-0.33,-10.04,
1434,1661544200838,-1.0945,0.1747,0.1187,17.64,-4.22,-12.41,
1435,1661544200838,-1.0794,0.0609,0.0016,17.26,-2.1,-4.02,
1436,1661544200839,-1.0584,0.1087,0.2623,17.05,1.2,-4.93,
1437,1661544200839,-1.1683,0.1366,0.2789,17.35,2.22,-2.02,
1438,1661544200840,-1.0672,-0.0353,0.0553,16.66,0.6,-5.21,
1439,1661544200840,-1.0472,0.1444,0.252,17.37,-2.6,-4.93,
1440,1661544200841,-1.1522,0.1805,0.3546,16.25,-7.09,-6.47,
1441,1661544200841,-0.9603,-0.0485,0.0738,15.64,-9.62,-1.56,
1442,1661544200842,-1.0535,0.1864,0.2315,18.27,8.05,-4.2,
1443,1661544200842,-0.9661,0.2831,0.2935,21.15,6.78,2.45,
1444,1661544200842,-1.0433,-0.0768,0.0601,23.26,2.89,1.63,
1445,1661544200842,-0.9915,0.1634,0.1104,21.67,5.96,-5.11,
1446,1661544200842,-0.9188,0.4613,0.109,24.03,1.03,-3.56,
1447,1661544200844,-0.8504,0.4715,0.0479,23.26,9.41,-2.92,
1448,1661544200844,-0.8577,0.2669,-0.3334,25.65,-3.12,-2.83,
1449,1661544200845,-0.7742,0.1732,-0.0678,25.45,6.86,0.27,
1450,1661544200845,-0.7542,0.4925,0.1305,24.03,4.66,-1.38,
1451,1661544200845,-0.7288,0.785,-0.2431,28.43,-3.63,-6.47,
1452,1661544200846,-0.7293,0.1371,-0.4267,30.66,-4.46,-5.94,
1453,1661544200846,-0.7215,0.4339,0.0684,29.36,-0.41,-6.75,
1454,1661544200847,-0.7342,0.5121,-0.1645,30.08,-7.5,-10.76,
1455,1661544200847,-0.7405,0.2914,-0.2748,33.95,-3.46,-9.04,
1456,1661544200848,-0.7361,0.2176,-0.1547,35.83,-0.74,-8.03,
1457,1661544200848,-0.784,0.0374,0.0484,33.16,-0.24,-4.84,
1458,1661544200849,-0.7762,0.1693,-0.2065,30.17,-13.25,-7.48,
1459,1661544200849,-0.7772,0.0589,-0.1405,33.65,-5.15,-4.84,
1460,1661544200850,-0.8641,-0.1252,0.0577,34.04,-1.76,-2.92,
1461,1661544200850,-0.7537,0.0023,-0.1933,30.64,-5.32,-0.64,
1462,1661544200851,-0.9212,-0.172,0.0191,30.85,-7.18,3.1,
1463,1661544200851,-0.8983,-0.0656,0.089,28.95,-8.11,0.36,
1464,1661544200852,-0.9476,-0.0207,-0.0287,29.16,-10.72,-0.92,
1465,1661544200852,-0.9686,-0.0124,-0.1298,30.14,-9.62,3.19,
1466,1661544200852,-1.0237,-0.0461,0.13,30.15,3.9,1.28,
1467,1661544200853,-0.9769,0.0296,0.0304,26.87,-0.15,3.28,
1468,1661544200853,-0.9271,0.2542,-0.3197,23.06,-3.37,1.54,
1469,1661544200854,-0.9705,0.1449,0.0318,25.56,-3.29,-0.19,
1470,1661544200854,-1.0447,-0.0334,0.0704,28.28,-8.43,-0.64,
1471,1661544200854,-0.9866,0.1356,-0.1874,25.85,-8.95,-1.92,
1472,1661544200855,-1.0374,0.4144,-0.1225,22.84,-10.55,-1.47,
1473,1661544200856,-1.1058,0.0726,0.0899,23.76,-8.78,0.36,
1474,1661544200856,-1.0833,0.076,0.109,24.93,-11.07,-1.47,
1475,1661544200857,-1.0853,0.3563,0.0748,21.76,-13.44,-4.84,
1476,1661544200857,-1.179,0.1405,0.1671,22.75,-13.35,-6.75,
1477,1661544200858,-1.1922,-0.0153,0.2408,21.96,-5.91,-4.66,
1478,1661544200858,-1.1551,-0.0739,0.294,20.26,0.1,-4.75,
1479,1661544200859,-1.2108,0.1195,0.1554,19.65,-3.2,-8.21,
1480,1661544200859,-1.1893,-0.0461,0.0997,19.55,-7.68,-11.13,
1481,1661544200860,-1.2415,-0.1442,0.2628,16.36,-7.01,-6.47,
1482,1661544200860,-1.2025,0.1112,0.0958,12.67,-5.06,-7.02,
1483,1661544200860,-1.1517,0.0091,-0.0502,16.56,-2.1,-5.94,
1484,1661544200860,-1.3318,-0.172,0.2765,16.85,6.35,-6.03,
1485,1661544200861,-1.1536,-0.0338,0.3058,14.56,-6.16,-1.83,
1486,1661544200862,-1.2855,0.0907,0.2242,9.46,-8.36,-4.75,
1487,1661544200862,-1.2205,0.1463,0.3145,13.26,-8.69,-5.57,
1488,1661544200863,-1.1634,-0.112,0.2374,18.85,-6.08,-10.04,
1489,1661544200863,-1.136,0.4544,0.3458,15.76,18.88,0.64,
1490,1661544200863,-1.1434,0.4867,0.193,17.95,15.74,-7.48,
1491,1661544200864,-1.0081,0.0682,0.0601,19.15,19.98,-0.83,
1492,1661544200864,-1.0623,0.4276,0.0987,18.95,5.42,-4.38,
1493,1661544200864,-0.9808,0.5975,-0.1508,18.27,-6.59,-3.01,
1494,1661544200865,-1.1312,0.1927,0.0064,21.74,-14.79,3.1,
1495,1661544200865,-1.0623,0.3675,0.1627,19.96,-3.37,-3.01,
1496,1661544200866,-0.9359,0.4974,0.003,23.77,0.02,-0.37,
1497,1661544200866,-0.952,0.4388,0.0079,24.93,9.74,-1.01,
1498,1661544200866,-0.9681,0.3719,0.0982,22.93,2.8,-3.65,
1499,1661544200868,-0.9129,0.0868,0.0924,24.66,-3.79,3.19,
1500,1661544200868,-0.9144,0.244,0.1627,23.76,-11.24,-3.19,
1501,1661544200868,-0.9554,0.4466,0.0475,25.96,-9.04,4.29,
1502,1661544200869,-0.8948,-0.1383,-0.0321,30.46,2.55,3.83,
1503,1661544200869,-0.7059,0.2425,0.0748,27.36,9.07,3.74,
1504,1661544200870,-0.7728,0.2899,-0.1317,28.35,-1.0,3.92,
1505,1661544200870,-0.7879,-0.0114,-0.1811,29.85,-10.05,3.55,
1506,1661544200871,-0.9202,-0.0949,0.065,26.86,-1.17,3.46,
1507,1661544200871,-0.6634,0.2235,-0.0409,29.65,-1.0,3.64,
1508,1661544200872,-0.619,0.1776,-0.1049,28.15,-0.24,1.36,
1509,1661544200872,-0.7171,0.2801,0.0367,29.56,2.97,-1.28,
1510,1661544200873,-0.7396,-0.088,-0.3651,31.25,-2.6,3.28,
1511,1661544200873,-0.7986,0.1805,-0.144,30.49,11.62,-4.29,
1512,1661544200873,-0.8401,0.6498,0.1642,36.15,0.6,-3.19,
1513,1661544200874,-0.7318,-0.0968,-0.4242,34.46,2.05,2.64,
1514,1661544200874,-0.8084,0.2679,-0.268,28.35,-7.52,-2.38,
1515,1661544200875,-0.7908,0.45,-0.1913,27.76,-12.25,-1.28,
1516,1661544200875,-0.8763,0.1522,-0.31,37.55,-11.07,-9.4,
1517,1661544200876,-0.9466,0.2518,-0.0663,37.35,-1.34,-5.39,
1518,1661544200876,-0.9056,0.1327,-0.0629,31.45,-11.48,-8.39,
1519,1661544200877,-0.9173,0.1473,-0.0399,30.35,-15.97,-3.56,
1520,1661544200877,-0.9617,0.1517,0.0113,34.73,-16.56,-6.66,
1521,1661544200878,-0.9798,-0.1715,-0.0712,30.73,-9.21,-1.56,
1522,1661544200878,-1.014,0.0306,0.1925,26.15,-3.53,-5.57,
1523,1661544200879,-1.0975,-0.1359,0.0392,27.96,-6.75,-0.64,
1524,1661544200879,-0.95,-0.1916,-0.123,28.08,-17.98,0.36,
1525,1661544200880,-1.0145,0.0321,0.0811,23.06,-3.87,-2.2,
1526,1661544200880,-1.056,-0.0856,-0.0316,22.65,-12.41,2.36,
1527,1661544200881,-0.9886,-0.2931,-0.2509,19.55,-6.08,3.92,
1528,1661544200881,-1.2147,-0.1076,0.3067,20.16,-7.59,-0.19,
1529,1661544200881,-1.1263,-0.0485,0.0977,21.85,-20.62,2.91,
1530,1661544200882,-1.2938,-0.0622,0.2579,19.46,-8.52,-1.83,
1531,1661544200882,-1.1722,0.0331,0.4107,16.77,-2.01,-0.83,
1532,1661544200883,-1.1141,-0.0114,0.0025,17.76,-2.19,-1.74,
1533,1661544200883,-1.2591,0.2884,0.3141,17.96,4.92,-0.46,
1534,1661544200884,-1.3021,0.1971,0.3736,22.86,2.46,-3.01,
1535,1661544200884,-1.2117,0.0179,0.1593,22.74,5.18,4.56,
1536,1661544200885,-1.2562,0.3797,0.0113,20.16,4.58,-2.92,
1537,1661544200885,-1.1468,0.2772,-0.0985,18.65,-0.16,-3.56,
1538,1661544200886,-1.0975,0.182,-0.0028,16.76,-9.79,-3.47,
1539,1661544200886,-1.1854,0.3314,0.169,15.84,-14.37,-3.01,
1540,1661544200886,-1.1536,0.3006,-0.0736,19.56,-10.55,-1.19,
1541,1661544200887,-1.1859,0.2523,0.2769,20.36,5.18,-5.85,
1542,1661544200887,-1.119,0.287,0.3092,17.06,-0.24,-2.55,
1543,1661544200888,-1.0775,0.0633,0.0484,17.37,-4.89,-6.4,
1544,1661544200888,-1.1429,0.3075,0.3868,16.94,-4.8,-3.74,
1545,1661544200889,-1.1551,0.3089,0.4459,17.46,0.01,-4.29,
1546,1661544200889,-1.0726,-0.0436,0.1393,17.95,-0.83,-1.47,
1547,1661544200890,-1.0511,0.2201,0.1881,17.76,3.65,-3.19,
1548,1661544200890,-1.1072,0.183,0.211,15.85,-0.91,-2.2,
1549,1661544200890,-0.9666,-0.0929,0.0811,19.85,0.43,-1.19,
1550,1661544200891,-1.0316,0.138,0.1441,18.65,3.99,-0.83,
1551,1661544200892,-0.8099,0.3622,0.2511,21.36,-0.16,-0.64,
1552,1661544200892,-1.0491,0.0277,0.088,21.55,-6.42,-0.92,
1553,1661544200892,-0.9891,0.2108,0.0396,24.84,-0.24,3.83,
1554,1661544200893,-0.9725,0.2513,0.1905,23.76,3.49,4.38,
1555,1661544200893,-0.8709,0.4862,0.3126,22.16,19.81,-3.74,
1556,1661544200894,-0.8328,0.4476,-0.2206,28.06,3.32,1.19,
1557,1661544200894,-0.7864,-0.172,-0.3173,27.15,14.99,2.18,
1558,1661544200894,-0.7918,0.7415,0.2647,25.76,5.09,-2.55,
1559,1661544200894,-0.7005,0.6522,-0.4301,27.94,-5.4,-0.55,
1560,1661544200895,-0.679,0.1781,-0.6313,35.84,-6.16,3.92,
1561,1661544200895,-0.7767,0.2533,-0.1767,29.25,4.08,0.82,
1562,1661544200896,-0.7112,0.5706,0.0226,28.46,-3.2,1.0,
1563,1661544200898,-0.8079,0.4408,-0.4311,32.15,-7.59,-1.65,
1564,1661544200898,-0.804,0.179,-0.1029,35.75,-5.32,-2.29,
1565,1661544200898,-0.8509,0.0726,0.1729,34.64,-3.79,1.45,
1566,1661544200898,-0.7713,0.2406,0.0064,32.07,-11.9,-7.94,
1567,1661544200899,-0.8011,0.1371,-0.3593,35.36,-12.75,-4.2,
1568,1661544200899,-0.8851,-0.1198,0.1583,37.95,3.06,-2.11,
1569,1661544200900,-0.7879,0.1224,0.0377,32.65,-5.82,-1.65,
1570,1661544200900,-0.9217,-0.1623,-0.2323,32.15,-6.42,-0.55,
1571,1661544200901,-0.825,-0.2394,-0.019,31.36,-10.81,2.82,
1572,1661544200901,-0.9505,-0.0089,0.172,32.33,-8.02,0.55,
1573,1661544200902,-0.9822,0.0594,-0.0819,27.96,-12.25,3.74,
1574,1661544200902,-0.9979,-0.1593,-0.2211,28.73,-2.19,1.28,
1575,1661544200902,-1.0027,-0.2018,0.3629,25.36,0.43,2.55,
1576,1661544200903,-0.8548,0.2694,-0.2011,24.35,-14.79,1.0,
1577,1661544200903,-0.8685,0.2083,-0.2982,28.93,-9.71,-1.47,
1578,1661544200904,-1.0408,-0.1964,0.1231,27.05,1.03,2.09,
1579,1661544200904,-1.0174,-0.0915,0.0645,24.66,2.55,-0.37,
1580,1661544200905,-1.015,0.4686,-0.2729,25.35,-6.49,-0.55,
1581,1661544200905,-1.1326,0.222,-0.1259,26.54,-15.71,-0.92,
1582,1661544200906,-1.0882,-0.0714,0.2296,26.35,-20.72,-0.37,
1583,1661544200906,-1.0911,0.3246,0.1046,20.75,-17.83,-1.92,
1584,1661544200907,-1.1902,0.3485,-0.0214,22.66,-12.51,-3.56,
1585,1661544200907,-1.2303,-0.0314,0.3507,25.45,-2.86,-1.1,
1586,1661544200908,-1.2484,0.0179,0.4342,21.56,-0.07,-4.84,
1587,1661544200908,-1.2283,0.1512,0.2022,17.73,-10.55,-4.93,
1588,1661544200908,-1.2342,0.0223,0.0963,21.65,-9.55,-6.75,
1589,1661544200909,-1.1956,-0.1071,0.3995,18.86,-2.95,-0.09,
1590,1661544200909,-1.1624,0.0775,0.0899,14.05,-2.44,-1.74,
1591,1661544200910,-1.2078,-0.0197,-0.0522,16.45,0.19,-1.28,
1592,1661544200910,-1.2869,-0.1413,0.3141,18.65,1.12,-1.38,
1593,1661544200911,-1.1028,-0.0441,0.149,16.25,-9.21,2.45,
1594,1661544200911,-1.1751,0.0975,0.148,8.56,-13.01,-0.46,
1595,1661544200911,-1.0735,0.1546,0.2442,14.36,-4.63,2.73,
1596,1661544200912,-1.1946,-0.1569,0.401,19.04,11.77,4.65,
1597,1661544200912,-1.1458,0.3665,0.3829,17.06,15.07,1.0,
1598,1661544200913,-1.139,0.327,0.1441,18.56,3.39,-1.47,
1599,1661544200913,-1.074,0.0414,0.3429,18.46,15.23,3.0,
1600,1661544200913,-1.0633,0.3104,0.3487,15.66,3.15,0.82,
1601,1661544200914,-0.8997,0.5145,-0.3144,17.37,-1.93,-3.47,
1602,1661544200915,-1.0545,0.3636,0.0035,20.66,-3.12,-0.46,
1603,1661544200915,-1.0218,0.4032,0.1476,22.65,0.19,-4.93,
1604,1661544200916,-0.9236,0.347,-0.0531,24.74,-0.83,-2.92,
1605,1661544200916,-0.9661,0.5164,-0.1049,19.85,1.12,-6.56,
1606,1661544200917,-0.9481,0.4896,0.0084,19.15,-8.87,-4.75,
1607,1661544200917,-0.8973,0.0843,0.0831,24.14,-10.64,-2.2,
1608,1661544200918,-0.9432,0.4984,0.2105,28.75,-3.53,-8.3,
1609,1661544200918,-0.8968,0.2381,-0.0326,29.65,-2.6,0.91,
1610,1661544200918,-0.888,-0.0475,-0.0043,29.27,8.73,-0.55,
1611,1661544200918,-0.7454,0.2337,0.1524,28.15,10.75,-0.46,
1612,1661544200919,-0.8099,0.2943,-0.1191,29.25,-3.63,1.45,
1613,1661544200919,-0.7767,-0.0666,-0.1874,31.56,-5.99,1.1,
1614,1661544200920,-0.9163,0.0096,0.0006,33.84,1.7,1.54,
1615,1661544200920,-0.8084,0.0453,-0.1078,26.84,2.46,-1.47,
1616,1661544200921,-0.6912,0.2362,-0.2206,24.54,6.95,1.1,
1617,1661544200921,-0.7503,0.3602,0.0362,27.15,5.59,-2.92,
1618,1661544200921,-0.783,-0.2516,-0.3617,28.93,-12.75,5.2,
1619,1661544200923,-0.888,0.4207,0.046,28.95,-9.79,0.27,
1620,1661544200923,-0.8611,0.3968,0.0655,31.43,-11.74,0.36,
1621,1661544200923,-0.8939,0.1156,-0.1342,34.15,2.46,4.38,
1622,1661544200925,-0.783,0.1727,-0.2577,32.96,6.12,-1.19,
1623,1661544200925,-0.7943,0.3265,-0.1195,32.84,11.27,0.46,
1624,1661544200925,-0.7957,0.3382,-0.0981,31.75,-4.63,-6.75,
1625,1661544200925,-0.908,0.2489,-0.2953,34.04,-15.3,-3.28,
1626,1661544200926,-0.9236,-0.0319,-0.2436,36.84,-23.68,-5.85,
1627,1661544200926,-0.9349,0.1341,-0.036,28.67,-7.67,0.27,
1628,1661544200927,-0.9329,0.3582,-0.0092,31.94,-9.04,-4.56,
1629,1661544200927,-0.9686,-0.1217,-0.2792,31.14,-8.78,-1.28,
1630,1661544200928,-0.949,0.0638,0.1568,28.86,-8.78,-6.21,
1631,1661544200928,-1.0506,-0.0753,0.1114,26.84,-12.0,0.91,
1632,1661544200929,-1.012,-0.1584,-0.1274,29.97,-17.91,-2.92,
1633,1661544200929,-1.0237,-0.0299,0.1129,23.94,-2.1,-2.73,
1634,1661544200930,-1.0423,-0.1281,-0.0409,24.86,-2.6,-4.2,
1635,1661544200930,-1.1346,-0.1466,-0.0834,23.76,-12.93,2.18,
1636,1661544200931,-1.2894,-0.1794,0.1827,22.16,-18.33,-4.02,
1637,1661544200931,-1.1663,-0.0871,0.2071,23.64,-17.92,-2.02,
1638,1661544200931,-1.2679,-0.0065,0.2061,22.16,-5.15,-4.2,
1639,1661544200932,-1.2537,-0.0734,0.3575,16.76,-5.91,-4.47,
1640,1661544200932,-1.221,-0.0036,0.3463,15.66,0.43,-6.84,
1641,1661544200933,-1.2269,0.2328,0.38,18.74,-1.17,-8.85,
1642,1661544200933,-1.3021,0.036,0.1642,20.46,-8.19,-4.93,
1643,1661544200934,-1.2337,-0.049,0.3404,21.35,7.45,-9.95,
1644,1661544200934,-1.2669,0.3133,0.3697,17.96,5.35,-5.3,
1645,1661544200935,-1.1194,0.3177,-0.3061,16.76,-1.67,-4.66,
1646,1661544200935,-1.1751,0.2406,-0.0443,15.05,-1.84,-6.3,
1647,1661544200936,-1.1302,0.3192,0.2032,16.95,-0.24,-2.83,
1648,1661544200936,-1.0872,0.2674,-0.1156,18.66,-7.35,-5.66,
1649,1661544200936,-1.1717,0.348,-0.08,17.95,-2.53,-6.84,
1650,1661544200937,-1.0877,0.3705,0.232,19.56,-7.85,-9.4,
1651,1661544200937,-1.0457,0.0746,0.1651,19.46,-5.06,-4.56,
1652,1661544200938,-1.0989,0.3299,0.2022,17.95,-3.63,-8.39,
1653,1661544200938,-1.1116,0.1976,0.2208,23.47,2.48,-6.3,
1654,1661544200939,-1.0452,0.0106,0.2213,22.26,2.22,-7.3,
1655,1661544200939,-1.0677,0.1375,0.2154,17.46,1.53,-7.48,
1656,1661544200940,-1.0965,0.1512,0.0362,15.84,0.43,-0.64,
1657,1661544200940,-1.0526,0.0296,0.1305,18.46,6.28,0.55,
1658,1661544200940,-1.0296,0.2137,0.1393,18.86,5.94,-3.37,
1659,1661544200941,-0.9368,0.1878,-0.0004,22.46,-5.91,0.36,
1660,1661544200941,-0.9349,0.1693,0.1314,21.06,-4.63,3.28,
1661,1661544200942,-0.9979,0.1414,0.1339,23.76,-10.48,2.45,
1662,1661544200942,-0.8104,0.0677,-0.0878,24.55,-11.15,2.91,
1663,1661544200943,-0.7552,0.7601,0.3248,20.14,10.84,0.73,
1664,1661544200943,-0.8392,0.6942,0.1617,25.25,8.05,0.36,
1665,1661544200943,-0.8187,-0.2921,-0.3432,30.85,19.46,4.29,
1666,1661544200944,-0.8001,0.5814,0.149,31.83,13.04,-2.02,
1667,1661544200944,-0.6658,0.7835,-0.1435,25.45,-2.27,-1.28,
1668,1661544200945,-0.6668,0.1302,-0.5346,29.74,-10.9,2.09,
1669,1661544200945,-0.6966,0.2611,-0.2065,29.15,-5.73,0.55,
1670,1661544200945,-0.5809,0.4149,0.0059,34.35,3.65,-0.64,
1671,1661544200947,-0.6688,0.6571,-0.307,35.34,-1.6,-1.47,
1672,1661544200947,-0.7215,0.265,-0.4521,35.36,-5.65,-0.0,
1673,1661544200947,-0.784,0.0062,0.1524,28.73,-9.55,-2.38,
1674,1661544200948,-0.7567,0.4813,-0.0775,34.33,-18.33,-6.93,
1675,1661544200948,-0.8475,-0.0529,-0.3998,42.94,-13.6,-4.75,
1676,1661544200949,-0.8494,0.0057,0.2784,35.75,6.69,-3.56,
1677,1661544200949,-0.8055,0.1707,0.3414,28.44,0.52,-8.76,
1678,1661544200950,-0.9193,-0.0827,-0.1767,30.06,-7.35,-1.74,
1679,1661544200950,-0.8626,-0.1901,-0.2372,37.74,-13.35,-0.92,
1680,1661544200951,-0.9295,-0.1505,0.3082,33.54,-2.27,-1.38,
1681,1661544200951,-0.95,0.0081,-0.1479,23.56,-15.13,-2.02,
1682,1661544200952,-1.0535,-0.2326,-0.1742,27.36,-10.72,1.63,
1683,1661544200952,-1.0296,-0.338,0.4024,30.85,-7.26,-1.92,
1684,1661544200953,-0.9471,0.3661,-0.2128,27.56,-13.94,-1.1,
1685,1661544200953,-0.9632,0.0999,-0.2314,24.95,-10.64,-1.83,
1686,1661544200953,-1.1014,-0.2658,0.0714,28.95,5.94,1.81,
1687,1661544200954,-1.0355,-0.0583,0.2633,28.93,11.01,0.73,
1688,1661544200954,-1.1038,0.4461,-0.3129,24.58,-10.8,-3.47,
1689,1661544200955,-1.1751,0.138,-0.081,21.15,-16.47,-1.1,
1690,1661544200955,-1.16,0.0101,0.3477,23.24,-13.6,-5.11,
1691,1661544200956,-1.0823,0.3319,-0.0946,24.35,-10.48,-4.56,
1692,1661544200957,-1.1849,0.3958,-0.058,24.46,-6.25,-5.75,
1693,1661544200957,-1.1922,0.0179,0.442,21.76,-7.94,-2.92,
1694,1661544200957,-1.261,-0.0241,0.4303,21.74,-13.18,-6.21,
1695,1661544200958,-1.2747,0.2367,0.0689,17.66,-24.42,-5.66,
1696,1661544200958,-1.3196,-0.0168,0.1934,22.86,-7.59,-3.37,
1697,1661544200958,-1.262,-0.0753,0.4703,20.45,13.71,-5.11,
1698,1661544200959,-1.1751,0.1063,0.089,13.66,3.23,-5.21,
1699,1661544200960,-1.2547,-0.0763,0.0787,14.65,-7.35,-4.56,
1700,1661544200960,-1.202,-0.1925,0.3463,18.56,-14.96,-7.02,
1701,1661544200961,-1.1243,-0.1276,0.2901,18.66,0.27,-8.67,
1702,1661544200961,-1.1722,0.1624,0.045,13.79,8.15,-2.73,
1703,1661544200961,-1.0281,-0.0544,0.0787,13.46,8.31,1.72,
1704,1661544200962,-1.2117,-0.1837,0.5631,14.65,13.8,-0.64,
1705,1661544200962,-1.1009,0.3841,0.171,13.05,-4.89,0.64,
1706,1661544200963,-1.1107,0.4012,-0.1005,18.16,-4.89,-1.83,
1707,1661544200963,-1.0848,0.0736,0.484,16.05,10.08,-0.37,
1708,1661544200964,-1.0081,0.3177,0.2838,15.85,6.19,-2.11,
1709,1661544200964,-0.8607,0.4813,-0.2333,18.66,11.6,-2.29,
1710,1661544200965,-1.0203,0.4579,0.0094,21.55,5.51,-4.47,
1711,1661544200965,-0.9105,0.2835,0.0362,24.74,4.49,-0.28,
1712,1661544200965,-0.9173,0.3348,-0.0595,24.64,-3.87,-0.37,
1713,1661544200966,-0.9368,0.6644,-0.1576,20.74,-6.16,-0.09,
1714,1661544200966,-0.8846,0.3622,-0.0907,23.45,-5.56,0.36,
1715,1661544200967,-0.888,0.3397,0.2306,25.96,4.25,-0.92,
1716,1661544200967,-0.89,0.5311,0.0265,27.56,-1.93,-2.11,
1717,1661544200968,-0.8123,0.3641,-0.1479,29.74,0.86,-1.65,
1718,1661544200968,-0.7552,0.0956,0.1266,30.66,2.8,-3.28,
1719,1661544200969,-0.7396,0.3763,0.2042,29.63,-0.5,-3.01,
1720,1661544200969,-0.7859,0.1414,-0.2255,29.16,-4.72,-0.09,
1721,1661544200969,-0.7996,0.0443,0.0162,29.15,6.19,-5.66,
1722,1661544200969,-0.8001,0.0902,-0.0639,32.27,-1.75,3.0,
1723,1661544200970,-0.7391,0.0545,-0.3129,30.95,-7.35,1.45,
1724,1661544200970,-0.6478,0.1961,-0.3017,29.54,-3.46,2.36,
1725,1661544200971,-0.6751,0.2303,0.0894,31.85,-0.33,7.47,
1726,1661544200971,-0.8504,-0.1105,-0.1649,29.74,-9.62,-2.11,
1727,1661544200972,-0.8401,0.285,-0.1654,30.24,-11.48,1.45,
1728,1661544200973,-0.8475,0.2401,0.1798,32.27,-4.04,-0.19,
1729,1661544200973,-0.8328,0.244,0.1256,35.83,6.02,1.36,
1730,1661544200974,-0.8069,0.1683,-0.3832,37.45,-2.27,5.37,
1731,1661544200974,-0.8553,0.0882,-0.0819,33.74,13.63,4.74,
1732,1661544200975,-0.9183,0.4686,0.1651,32.65,-1.6,-3.01,
1733,1661544200975,-0.8773,0.1375,-0.5155,35.45,-16.99,1.1,
1734,1661544200976,-0.8655,-0.0983,-0.4941,35.14,-19.43,1.36,
1735,1661544200976,-0.909,0.2083,0.0909,32.15,-5.99,0.73,
1736,1661544200976,-0.9217,0.2821,-0.0751,30.95,-12.0,2.09,
1737,1661544200977,-0.9832,0.0287,-0.3915,32.76,-15.12,-1.38,
1738,1661544200977,-0.9539,0.0208,0.1778,31.95,-10.72,-1.74,
1739,1661544200978,-1.0233,-0.0641,0.2144,27.05,-11.15,-3.56,
1740,1661544200978,-1.0457,-0.0329,-0.1459,26.73,-10.72,-7.11,
1741,1661544200979,-1.0775,-0.1305,0.0655,26.95,-0.91,-1.56,
1742,1661544200979,-1.013,-0.0172,0.0782,22.16,-9.62,-3.92,
1743,1661544200980,-1.0989,-0.0153,-0.0434,25.74,-16.4,-1.92,
1744,1661544200980,-1.2708,-0.2707,-0.1015,27.45,-12.93,-1.38,
1745,1661544200981,-1.1126,-0.1076,0.2213,22.65,-6.92,-3.28,
1746,1661544200981,-1.3143,-0.0124,0.3453,16.94,-10.9,-2.29,
1747,1661544200982,-1.1766,-0.2033,-0.0717,18.66,-20.72,-0.64,
1748,1661544200982,-1.2264,-0.0602,0.5577,20.86,4.92,-0.0,
1749,1661544200983,-1.2752,0.1234,0.4268,19.76,3.15,0.64,
1750,1661544200983,-1.3387,-0.068,0.0528,17.76,2.97,1.54,
1751,1661544200984,-1.2669,0.0116,0.3863,17.15,12.03,-2.38,
1752,1661544200984,-1.2693,0.1961,0.5782,15.05,1.96,-2.83,
1753,1661544200985,-1.0735,0.2513,-0.2514,15.66,-4.22,1.36,
1754,1661544200985,-1.1863,0.306,-0.0609,18.46,2.05,-7.2,
1755,1661544200985,-1.1829,0.1473,0.2828,19.26,3.06,5.11,
1756,1661544200986,-1.1717,0.1737,0.1685,17.05,-3.63,-6.03,
1757,1661544200986,-1.1375,0.4906,-0.0214,13.15,-11.91,-1.56,
1758,1661544200987,-1.0662,0.3236,0.1314,16.05,-9.04,-5.85,
1759,1661544200987,-1.053,0.1859,0.3072,18.34,3.9,-3.28,
1760,1661544200988,-1.0755,0.3993,0.0899,16.85,4.16,-8.76,
1761,1661544200988,-1.0042,0.3333,0.0709,20.26,8.38,-6.21,
1762,1661544200988,-1.035,0.1122,0.3585,21.13,6.45,0.18,
1763,1661544200989,-1.0628,0.1996,0.1974,20.84,5.68,-4.29,
1764,1661544200989,-1.0237,0.1205,0.0084,19.15,1.03,-1.65,
1765,1661544200990,-1.0276,0.2362,0.2511,17.24,1.62,-2.64,
1766,1661544200990,-1.0867,0.2459,0.2574,15.84,-7.35,-4.2,
1767,1661544200991,-0.826,0.0658,-0.1884,18.45,-16.06,-1.19,
1768,1661544200991,-0.9139,0.2401,0.2501,26.86,9.31,-0.92,
1769,1661544200992,-0.9446,0.1024,0.3351,28.53,10.93,2.45,
1770,1661544200992,-0.827,0.0213,0.0016,26.73,10.84,-2.55,
1771,1661544200993,-0.9305,0.3778,0.1637,19.84,-0.57,-3.37,
1772,1661544200993,-0.7806,0.4803,0.1939,24.55,-9.62,-0.19,
1773,1661544200993,-0.7806,-0.2365,-0.1615,25.96,-0.5,-1.38,
1774,1661544200994,-0.7669,0.5741,-0.0492,32.24,16.33,-4.84,
1775,1661544200994,-0.6819,0.5907,-0.0243,30.55,23.61,-4.29,
1776,1661544200995,-0.6317,0.2674,-0.5727,29.66,-3.69,-2.64,
1777,1661544200995,-0.5604,0.1595,-0.4184,29.94,-12.17,-4.84,
1778,1661544200996,-0.6741,0.6507,-0.0956,29.74,-7.01,-0.46,
1779,1661544200996,-0.7776,0.766,-0.3275,33.56,-4.72,-5.85,
1780,1661544200998,-0.7938,0.1795,-0.4418,35.16,-5.82,4.38,
1781,1661544200998,-0.8582,0.2196,0.1192,34.96,-4.39,-0.0,
1782,1661544200998,-0.7796,0.5296,-0.0609,36.26,-14.03,-3.01,
1783,1661544200998,-0.8255,0.0135,-0.3241,40.15,-9.55,1.28,
1784,1661544200999,-0.8382,0.0975,0.1856,39.05,0.1,0.27,
1785,1661544200999,-0.8279,0.1019,0.2271,31.95,-0.07,0.27,
1786,1661544201000,-0.9007,-0.0851,-0.1845,31.83,-7.42,2.0,
1787,1661544201000,-0.8431,-0.1398,-0.2079,35.55,-12.25,0.27,
1788,1661544201000,-0.9583,-0.1564,0.2008,33.74,-7.94,-1.38,
1789,1661544201001,-0.8572,0.0194,-0.3144,28.46,-21.22,1.81,
1790,1661544201001,-1.0696,-0.3595,-0.0971,29.56,-13.44,-1.01,
1791,1661544201002,-1.0115,-0.2711,0.3741,27.45,-6.59,5.28,
1792,1661544201002,-0.9739,0.0746,0.1593,26.86,-8.11,2.82,
1793,1661544201003,-0.9891,0.2108,-0.2519,24.75,-14.79,1.45,
1794,1661544201003,-1.0657,-0.2687,0.0299,27.85,-1.5,0.64,
1795,1661544201003,-1.0203,0.0326,0.3175,28.55,5.51,-0.64,
1796,1661544201004,-1.1234,0.3578,-0.1996,26.26,-5.82,-2.29,
1797,1661544201004,-1.1951,0.078,-0.0429,25.06,-4.89,-3.74,
1798,1661544201005,-1.1863,0.0223,0.2159,22.14,-6.83,0.18,
1799,1661544201006,-1.1419,0.2083,0.1363,23.85,-14.96,-7.75,
1800,1661544201006,-1.138,0.4168,-0.2792,24.26,-18.85,-10.85,
1801,1661544201006,-1.2034,0.1483,0.1583,27.05,-7.18,-11.58,
1802,1661544201007,-1.2659,0.0565,0.4952,21.55,-6.83,-8.49,
1803,1661544201007,-1.3328,0.2542,0.212,17.35,-12.75,-9.68,
1804,1661544201008,-1.3323,0.0414,0.2682,20.86,-5.15,-7.2,
1805,1661544201008,-1.2581,-0.0168,0.4322,21.55,3.56,-8.49,
1806,1661544201009,-1.1971,0.0516,0.4117,18.65,0.1,-9.77,
1807,1661544201009,-1.2337,0.0409,0.0704,17.67,-7.84,-5.3,
1808,1661544201010,-1.2,-0.132,0.1983,21.04,-9.97,-6.93,
1809,1661544201010,-1.1639,0.0023,0.4596,17.75,2.13,-6.12,
1810,1661544201010,-1.2488,0.0985,0.3062,14.45,-1.6,-1.38,
1811,1661544201011,-1.0623,-0.0089,-0.227,13.14,-6.75,-2.29,
1812,1661544201011,-1.1649,-0.1872,0.338,13.76,4.83,-1.65,
1813,1661544201012,-1.1234,0.2025,0.4142,20.75,-3.2,-0.83,
1814,1661544201012,-1.1683,0.1766,-0.0107,19.64,-5.65,3.0,
1815,1661544201013,-1.1082,0.2196,0.6095,15.96,9.48,-0.55,
1816,1661544201013,-1.0555,0.1971,0.4942,17.26,10.41,-0.09,
1817,1661544201014,-0.8489,0.3138,-0.0868,16.36,19.22,-1.83,
1818,1661544201014,-1.0008,0.5164,-0.0375,22.66,13.8,-6.84,
1819,1661544201015,-0.931,0.2249,0.0601,24.05,6.28,0.09,
1820,1661544201015,-0.9871,0.3968,-0.0121,20.75,-5.4,-3.56,
1821,1661544201015,-0.9422,0.6297,-0.2113,24.75,-4.72,-5.66,
1822,1661544201016,-0.9022,0.4193,-0.2382,26.34,-0.91,-4.02,
1823,1661544201016,-0.887,0.349,0.0851,24.16,7.79,-6.03,
1824,1661544201017,-0.8289,0.5453,-0.0522,24.54,-3.2,2.55,
1825,1661544201017,-0.7557,0.3231,-0.205,27.24,-5.15,-0.92,
1826,1661544201018,-0.7879,0.2821,0.2442,33.04,1.53,2.18,
1827,1661544201018,-0.7889,0.3001,0.0162,32.06,-0.41,-4.47,
1828,1661544201019,-0.7576,0.223,-0.1811,33.05,0.52,-3.83,
1829,1661544201019,-0.7503,0.1595,-0.0673,27.65,2.89,1.28,
1830,1661544201020,-0.7464,0.0663,-0.078,26.37,-3.52,-4.75,
1831,1661544201020,-0.6942,0.0999,-0.3979,30.05,-8.52,1.63,
1832,1661544201021,-0.7298,0.2308,-0.203,33.74,-4.63,-0.55,
1833,1661544201021,-0.7034,0.1537,-0.1469,37.43,-6.25,7.84,
1834,1661544201021,-0.8192,-0.0299,-0.0453,35.17,-2.59,4.38,
1835,1661544201022,-0.8284,0.1722,-0.2167,31.16,-12.41,3.1,
1836,1661544201022,-0.6907,0.1165,-0.1044,29.56,-3.2,2.18,
1837,1661544201023,-0.7786,0.3036,0.1817,33.16,1.62,1.0,
1838,1661544201023,-0.7903,0.0457,-0.3544,40.44,-0.91,5.92,
1839,1661544201024,-0.8587,-0.0656,-0.245,38.54,8.98,2.91,
1840,1661544201024,-0.9349,0.3773,0.3145,32.46,-2.19,-1.01,
1841,1661544201025,-0.8455,0.2176,-0.3295,32.06,-18.59,-4.02,
1842,1661544201025,-0.9139,-0.0426,-0.3866,32.35,-15.71,-1.19,
1843,1661544201026,-0.9222,0.2669,0.1661,33.57,-1.32,-0.55,
1844,1661544201026,-0.9603,0.1327,-0.1601,29.86,-9.03,-1.28,
1845,1661544201026,-1.0179,0.2225,-0.2255,29.05,-12.93,-0.83,
1846,1661544201027,-0.9793,0.0008,0.0987,31.85,-17.92,-0.19,
1847,1661544201027,-0.9944,-0.1012,0.1729,30.75,-9.04,-1.28,
1848,1661544201027,-1.0604,0.1253,-0.018,28.35,-3.37,-1.47,
1849,1661544201028,-1.0828,-0.0309,-0.1015,24.66,-6.49,-2.2,
1850,1661544201028,-1.0389,-0.0041,0.2252,24.16,-11.83,-3.1,
1851,1661544201030,-1.223,0.0062,0.1861,28.64,-15.8,-0.19,
1852,1661544201030,-1.2523,-0.2326,-0.081,27.94,-18.09,-2.02,
1853,1661544201030,-1.2391,0.0482,0.4107,21.67,-10.03,-9.22,
1854,1661544201031,-1.4022,-0.1115,0.2848,19.64,-8.62,-7.48,
1855,1661544201031,-1.262,-0.2521,0.0616,20.65,-12.17,-4.93,
1856,1661544201032,-1.3367,-0.0929,0.483,17.15,3.06,-2.73,
1857,1661544201032,-1.3016,0.0848,0.7374,18.16,1.53,-6.56,
1858,1661544201033,-1.3641,-0.0871,0.0684,20.54,-0.33,-6.75,
1859,1661544201033,-1.2752,0.0702,0.4688,19.27,1.72,-3.19,
1860,1661544201034,-1.2488,0.056,0.3507,16.76,3.56,-3.65,
1861,1661544201034,-1.1492,0.1107,0.1275,13.66,4.58,0.27,
1862,1661544201034,-1.1849,0.3714,-0.2001,16.07,3.16,-5.57,
1863,1661544201035,-1.1453,0.1122,0.0431,19.06,5.42,-3.83,
1864,1661544201035,-1.244,0.2489,0.1158,19.64,-0.33,-3.47,
1865,1661544201036,-1.075,0.4525,-0.1269,19.75,-10.72,-6.4,
1866,1661544201036,-1.0804,0.2694,0.19,18.46,-7.68,-1.19,
1867,1661544201037,-1.1321,0.3299,0.3726,18.34,3.73,-5.02,
1868,1661544201037,-1.0906,0.368,0.1358,18.86,-0.24,-4.84,
1869,1661544201038,-1.0374,0.2249,0.1593,18.94,6.35,-3.83,
1870,1661544201038,-1.1282,0.3241,0.4151,22.03,3.23,-10.13,
1871,1661544201038,-1.075,0.1185,-0.0092,21.24,4.42,-5.75,
1872,1661544201039,-0.9798,0.097,-0.0282,19.84,-0.07,-9.58,
1873,1661544201039,-0.9901,0.2928,0.1871,18.95,3.82,-5.39,
1874,1661544201040,-0.971,0.1156,-0.0292,20.34,-0.91,-3.1,
1875,1661544201040,-0.8265,0.1605,-0.2094,23.65,1.2,-2.55,
1876,1661544201041,-0.9642,0.2113,0.2008,26.44,3.15,-5.39,
1877,1661544201041,-0.9554,0.0687,0.2203,29.85,-9.97,-0.46,
1878,1661544201042,-0.8846,-0.049,0.0855,23.36,-11.15,2.82,
1879,1661544201042,-0.8055,0.4349,0.1851,24.75,-5.49,0.73,
1880,1661544201043,-0.8216,0.2415,0.1934,24.75,7.12,3.1,
1881,1661544201043,-0.7689,0.0506,-0.0356,26.86,10.84,-1.47,
1882,1661544201043,-0.7156,0.3993,-0.1352,30.66,8.22,2.82,
1883,1661544201044,-0.7562,0.473,0.1124,30.73,15.4,0.91,
1884,1661544201044,-0.7332,0.5565,-0.2939,35.75,0.01,5.37,
1885,1661544201044,-0.5198,-0.0002,-0.7494,34.26,0.52,5.55,
1886,1661544201045,-0.6209,0.5702,-0.1039,27.96,2.63,-0.46,
1887,1661544201046,-0.6116,0.7235,-0.5087,31.16,-9.55,3.83,
1888,1661544201046,-0.6605,0.3499,-0.7108,40.25,-16.9,-3.19,
1889,1661544201047,-0.8216,0.2577,-0.0868,37.96,-11.22,-1.38,
1890,1661544201047,-0.7039,0.5189,0.0562,36.44,-15.97,-0.92,
1891,1661544201048,-0.7415,0.1761,-0.3041,39.84,-8.62,2.82,
1892,1661544201048,-0.889,0.2108,0.1622,40.86,-4.28,-3.01,
1893,1661544201049,-0.8543,-0.0514,0.2022,36.96,-4.63,3.28,
1894,1661544201049,-0.8743,0.0121,-0.1498,34.67,-9.44,-1.65,
1895,1661544201050,-0.9007,-0.0085,-0.1806,36.06,-9.88,-0.55,
1896,1661544201050,-0.9759,-0.2277,0.0992,32.06,-11.32,5.46,
1897,1661544201050,-0.9051,0.0643,-0.1816,29.74,-14.96,4.1,
1898,1661544201051,-1.0809,-0.2799,-0.269,30.73,-13.1,14.13,
1899,1661544201051,-1.0887,-0.4318,0.2203,28.15,-4.89,6.1,
1900,1661544201052,-0.9857,0.1375,0.1017,26.35,-10.9,4.01,
1901,1661544201052,-0.9881,-0.026,-0.2069,23.94,-19.1,5.11,
1902,1661544201053,-1.1883,-0.2003,0.2994,27.24,-4.39,3.83,
1903,1661544201053,-1.1234,-0.1217,0.4527,25.65,-0.41,2.27,
1904,1661544201054,-1.1111,0.1346,-0.0341,25.06,-5.15,0.73,
1905,1661544201054,-1.2679,0.2245,0.0821,25.64,3.15,4.29,
1906,1661544201054,-1.2693,0.036,0.38,25.85,4.58,3.46,
1907,1661544201055,-1.1653,0.0457,0.1739,25.04,-4.13,4.29,
1908,1661544201055,-1.1234,0.3451,-0.1825,21.44,-11.48,2.36,
1909,1661544201056,-1.2576,0.2459,0.0323,26.26,-14.03,5.92,
1910,1661544201056,-1.2952,0.0047,0.3741,23.76,-13.1,1.28,
1911,1661544201057,-1.3333,0.2518,0.2413,21.27,-12.32,-1.19,
1912,1661544201057,-1.3401,0.1004,0.1256,20.94,-8.11,2.0,
1913,1661544201058,-1.2703,0.0331,0.2857,23.27,7.73,-3.19,
1914,1661544201058,-1.2366,0.1131,0.4986,19.65,7.71,-1.01,
1915,1661544201059,-1.2103,0.0482,0.1046,18.16,-2.53,-1.92,
1916,1661544201059,-1.2308,-0.0299,0.1134,18.27,-8.28,-3.83,
1917,1661544201059,-1.181,-0.0177,0.4015,18.95,-3.7,3.1,
1918,1661544201060,-1.2337,0.0008,0.2784,18.48,3.74,-4.29,
1919,1661544201060,-1.1566,0.1048,-0.1732,17.26,2.97,1.1,
1920,1661544201061,-1.1038,-0.1061,0.1339,13.66,10.17,-0.55,
1921,1661544201061,-1.1766,0.0096,0.4088,15.24,-0.07,0.18,
1922,1661544201062,-1.1673,0.1805,-0.0043,19.14,-12.17,3.1,
1923,1661544201062,-1.1253,0.1825,0.4757,21.06,4.42,3.46,
1924,1661544201063,-1.013,0.1444,0.5831,18.07,4.26,9.38,
1925,1661544201063,-0.9861,0.1864,0.1519,18.66,8.64,5.28,
1926,1661544201063,-0.9622,0.4354,0.0372,18.46,12.2,0.64,
1927,1661544201065,-1.0057,0.1781,0.1847,20.25,14.64,4.19,
1928,1661544201065,-0.9432,0.2259,0.2003,22.95,7.79,-0.37,
1929,1661544201065,-0.9373,0.4344,-0.0937,22.65,-1.0,-0.46,
1930,1661544201065,-0.8748,0.5086,-0.2411,22.26,-2.77,0.91,
1931,1661544201066,-0.8734,0.3861,-0.0907,23.44,-2.6,-6.03,
1932,1661544201066,-0.7571,0.4339,-0.0756,22.26,-0.41,-0.28,
1933,1661544201067,-0.765,0.4974,-0.1562,26.35,-9.12,-3.83,
1934,1661544201067,-0.7786,0.4359,-0.0981,28.55,-7.94,-1.1,
1935,1661544201068,-0.8157,0.2757,0.1607,36.94,-3.37,-1.83,
1936,1661544201068,-0.7645,0.3695,-0.0219,32.93,4.08,0.64,
1937,1661544201069,-0.7322,0.224,-0.0917,29.74,8.64,-3.65,
1938,1661544201069,-0.7571,0.1161,-0.0658,26.84,4.92,-5.02,
1939,1661544201070,-0.6478,0.1473,-0.1513,29.65,-3.03,-5.66,
1940,1661544201070,-0.616,0.1776,-0.2304,32.64,-6.83,-7.85,
1941,1661544201071,-0.7015,0.224,-0.1977,36.44,-10.81,-3.83,
1942,1661544201071,-0.678,-0.0236,-0.1689,34.73,-5.73,-4.56,
1943,1661544201071,-0.8704,0.077,-0.0277,29.54,-9.62,2.09,
1944,1661544201072,-0.7127,0.1615,-0.2294,28.75,-13.27,0.18,
1945,1661544201072,-0.7903,0.1122,0.1676,32.26,-5.99,3.92,
1946,1661544201073,-0.8104,0.2635,0.192,35.55,-12.51,1.45,
1947,1661544201073,-0.9026,0.0526,-0.1732,32.58,-1.25,-3.56,
1948,1661544201074,-0.9051,0.1766,0.045,35.37,2.14,-0.19,
1949,1661544201074,-0.9354,0.3143,0.045,40.25,7.12,-6.93,
1950,1661544201075,-0.8968,0.0077,-0.2929,36.45,-2.1,-0.09,
1951,1661544201075,-0.8904,0.1112,-0.2382,32.15,-9.04,-1.38,
1952,1661544201075,-0.8494,0.1766,-0.0678,32.15,-13.01,-1.38,
1953,1661544201076,-1.0062,0.1639,-0.1151,30.24,-14.79,-4.29,
1954,1661544201076,-1.0086,0.2279,-0.2851,31.05,-16.23,-2.02,
1955,1661544201077,-1.0526,0.0296,0.0152,31.05,-10.14,-1.01,
1956,1661544201078,-1.0965,0.1341,0.1954,27.16,-12.51,-2.2,
1957,1661544201078,-1.1082,0.1014,-0.0888,27.16,-10.98,-2.92,
1958,1661544201078,-1.1136,-0.0055,0.1339,28.84,-6.92,-4.93,
1959,1661544201079,-1.1883,0.0736,0.3878,29.56,-2.95,-4.29,
1960,1661544201079,-1.2122,-0.2033,-0.0399,28.15,-12.25,-3.56,
1961,1661544201080,-1.1487,-0.2101,-0.0561,26.15,-8.78,-4.11,
1962,1661544201080,-1.2889,-0.0109,0.4654,23.94,-8.28,-0.55,
1963,1661544201081,-1.3162,-0.1872,0.1515,19.24,-14.44,-0.46,
1964,1661544201081,-1.285,-0.2419,0.1368,17.35,-3.53,2.27,
1965,1661544201082,-1.3206,0.0428,0.6485,19.06,-4.13,-1.1,
1966,1661544201082,-1.3548,-0.132,0.1637,19.46,-16.06,2.55,
1967,1661544201083,-1.3196,0.0111,0.3634,16.47,-0.24,4.38,
1968,1661544201083,-1.2967,0.0033,0.4981,17.15,-0.41,1.63,
1969,1661544201083,-1.2366,-0.0065,0.2994,17.56,15.83,0.18,
1970,1661544201084,-1.157,0.3465,-0.0092,17.85,11.51,-0.92,
1971,1661544201084,-1.1854,0.1248,0.0611,18.46,11.77,2.09,
1972,1661544201085,-1.1849,0.2083,0.2379,18.95,6.19,3.0,
1973,1661544201085,-1.2098,0.3934,0.0499,17.66,-8.78,-1.01,
1974,1661544201086,-1.0579,0.3289,-0.1986,19.64,-16.4,0.46,
1975,1661544201086,-1.18,0.2181,0.2125,17.84,-5.65,-5.75,
1976,1661544201087,-1.0482,0.3871,0.1192,18.95,1.2,-5.75,
1977,1661544201087,-1.0193,0.2806,0.0274,21.04,7.12,-7.2,
1978,1661544201087,-1.0628,0.4066,0.401,22.66,7.38,-5.3,
1979,1661544201088,-1.095,0.3084,0.3067,22.16,2.13,-1.56,
1980,1661544201088,-1.0071,0.1151,0.0572,20.04,1.79,-0.09,
1981,1661544201089,-1.0223,0.3607,0.255,19.36,2.63,-2.38,
1982,1661544201089,-0.992,0.1493,0.0133,19.14,-2.86,0.64,
1983,1661544201090,-0.9158,0.0692,-0.1269,20.26,-7.09,3.74,
1984,1661544201090,-0.8226,0.3133,-0.0707,21.85,-5.23,1.81,
1985,1661544201091,-0.9158,0.1302,0.0323,24.93,-4.39,8.21,
1986,1661544201091,-0.8885,-0.0407,0.0094,29.76,-0.57,3.37,
1987,1661544201091,-0.824,0.3119,0.1329,23.76,0.6,5.11,
1988,1661544201092,-0.7166,0.3241,0.088,23.84,-0.83,4.74,
1989,1661544201092,-0.7874,0.1917,0.1236,23.35,2.46,6.01,
1990,1661544201093,-0.7654,0.1146,-0.0815,28.44,-6.33,5.46,
1991,1661544201093,-0.7596,0.2459,-0.1288,29.76,-1.09,-0.09,
