srNo,timestamp,ax,ay,az,gx,gy,gz,temp
69952,1661548716847,-1.2359,0.1898,0.7682,-32.65,-1.38,-8.67,
69953,1661548716847,-1.0724,0.0531,-0.0692,-25.25,-4.67,-4.29,
69954,1661548716847,-1.1402,0.0409,0.0417,-20.37,12.08,-5.3,
69955,1661548716847,-1.233,0.2108,0.7717,-23.54,16.98,-3.74,
69956,1661548716847,-1.1827,0.1576,0.527,-30.35,2.77,-2.29,
69957,1661548716847,-0.9571,0.0438,-0.2581,-28.24,-6.11,-5.02,
69958,1661548716847,-0.9991,0.1347,0.1403,-24.55,9.36,2.18,
69959,1661548716855,-0.8604,0.0946,0.3874,-23.36,17.07,-1.74,
69960,1661548716855,-0.9269,-0.0187,-0.3709,-24.15,4.3,-1.29,
69961,1661548716855,-0.8536,0.0443,-0.1834,-20.96,-0.36,-2.02,
69962,1661548716855,-1.0792,0.2689,0.6926,-19.76,9.96,4.28,
69963,1661548716855,-0.9459,0.223,0.4855,-19.04,6.57,2.82,
69964,1661548716855,-0.8009,0.0184,-0.4432,-22.95,3.95,3.09,
69965,1661548716855,-0.733,0.3324,0.1281,-24.57,9.62,1.72,
69966,1661548716855,-0.8741,0.2655,0.6144,-20.16,15.45,3.18,
69967,1661548716855,-0.6559,0.2474,-0.3319,-14.07,10.63,5.82,
69968,1661548716855,-0.7843,0.223,-0.6063,-11.75,9.53,6.19,
69969,1661548716855,-0.879,0.3358,0.1735,-18.77,19.01,3.92,
69970,1661548716855,-0.8702,0.4222,0.1945,-20.75,9.12,5.73,
69971,1661548716855,-0.7066,0.1976,-0.9979,-16.95,-6.7,5.92,
69972,1661548716855,-0.7828,0.577,-0.1449,-12.95,6.5,6.47,
69973,1661548716855,-0.7696,0.5223,0.3884,-9.64,10.23,5.92,
69974,1661548716855,-0.8116,0.3427,-0.0687,-7.77,2.18,1.9,
69975,1661548716855,-0.6651,0.2518,-0.7103,-9.37,-8.57,1.28,
69976,1661548716855,-0.7452,0.4056,0.1808,-10.57,2.51,5.82,
69977,1661548716863,-0.7745,0.2655,0.2599,-6.94,4.22,7.38,
69978,1661548716863,-0.8131,0.059,-0.3519,-5.86,-4.58,4.83,
69979,1661548716863,-0.6715,0.0692,-0.6102,-7.77,3.44,3.0,
69980,1661548716863,-0.9063,0.2645,0.384,-10.27,4.8,3.64,
69981,1661548716863,-0.8648,-0.0255,-0.1629,-9.26,-6.03,6.01,
69982,1661548716865,-0.8224,-0.0963,-0.7044,-6.96,-14.49,8.2,
69983,1661548716865,-0.8512,0.1561,0.3029,-8.38,8.36,6.47,
69984,1661548716865,-0.777,0.0497,0.3859,-11.89,11.23,1.81,
69985,1661548716865,-0.8751,-0.0846,-0.3153,-13.27,-3.65,1.35,
69986,1661548716865,-0.7921,-0.0279,-0.2288,-11.96,-9.16,1.0,
69987,1661548716865,-1.0572,0.1366,0.3908,-9.75,-0.52,1.54,
69988,1661548716865,-1.0587,-0.0153,-0.1829,-8.86,1.34,3.55,
69989,1661548716865,-1.0587,0.078,-0.3397,-14.45,7.59,3.46,
69990,1661548716865,-0.9776,0.2484,-0.0418,-20.25,4.13,-4.75,
69991,1661548716865,-1.0597,0.2069,0.1774,-17.36,-6.44,0.64,
69992,1661548716865,-1.0792,0.0131,-0.2415,-11.26,-11.6,-5.3,
69993,1661548716865,-1.0626,0.1713,-0.1927,-14.45,-2.81,0.55,
69994,1661548716865,-1.1676,0.1776,0.1886,-21.85,-2.05,-2.11,
69995,1661548716865,-1.1954,0.0346,0.0143,-23.85,-10.76,-1.01,
69996,1661548716865,-1.2374,0.0609,0.0358,-18.95,-9.92,-6.12,
69997,1661548716865,-1.3111,0.1083,0.2297,-15.65,-2.64,-7.3,
69998,1661548716873,-1.2472,0.0028,0.1462,-18.84,-0.19,-9.86,
69999,1661548716873,-1.2252,-0.0685,0.2502,-21.94,-4.0,-5.48,
70000,1661548716873,-1.2774,-0.0846,0.089,-24.57,-6.61,-3.93,
70001,1661548716873,-1.1656,-0.0792,0.131,-24.44,-0.86,-0.83,
70002,1661548716873,-1.36,-0.131,0.3786,-28.46,0.82,-2.64,
70003,1661548716873,-1.1578,-0.15,0.0187,-29.46,-7.63,-3.38,
70004,1661548716873,-1.4244,-0.1022,0.0807,-25.94,-9.4,-2.74,
70005,1661548716873,-1.3204,-0.0304,0.6554,-23.96,10.29,-3.01,
70006,1661548716873,-1.296,-0.0773,0.155,-28.64,-6.11,2.27,
70007,1661548716873,-1.2828,0.0365,0.09,-30.84,-10.17,-0.65,
70008,1661548716873,-1.1393,0.038,0.4797,-30.26,1.25,1.81,
70009,1661548716873,-1.2555,0.1513,0.5788,-22.95,10.13,-0.92,
70010,1661548716873,-1.1485,0.1957,0.0373,-21.54,10.63,2.18,
70011,1661548716873,-1.0963,0.3207,0.1818,-26.15,15.79,-2.2,
70012,1661548716873,-1.0968,0.2562,0.2321,-27.14,9.7,0.82,
70013,1661548716873,-1.026,0.2059,-0.3192,-25.74,4.21,-4.84,
70014,1661548716873,-0.8995,0.244,-0.3553,-18.84,1.25,-2.02,
70015,1661548716873,-0.9386,0.3422,0.0856,-20.55,13.35,-0.46,
70016,1661548716881,-1.0216,0.3153,0.2248,-20.55,10.55,0.91,
70017,1661548716881,-0.8692,0.2035,-0.4359,-20.96,-3.65,-3.56,
70018,1661548716882,-0.8551,0.3138,0.089,-18.16,6.5,-0.19,
70019,1661548716882,-0.8927,0.2055,0.467,-16.84,17.15,1.63,
70020,1661548716882,-0.8365,0.0238,-0.2381,-14.36,6.91,4.83,
70021,1661548716882,-0.7145,0.0941,-0.1668,-19.74,11.73,-0.37,
70022,1661548716882,-0.8131,0.2191,0.3571,-18.07,9.36,7.93,
70023,1661548716882,-0.6686,0.0502,-0.1453,-13.27,4.88,4.83,
70024,1661548716882,-0.7667,0.0653,-0.3407,-12.57,1.58,4.28,
70025,1661548716882,-0.8224,0.161,0.1091,-15.73,3.79,4.01,
70026,1661548716882,-0.7359,0.1737,0.0636,-12.85,-0.36,6.83,
70027,1661548716882,-0.8307,0.1747,-0.2806,-10.25,2.94,11.3,
70028,1661548716882,-0.5558,0.2504,-0.0819,-11.67,5.06,8.39,
70029,1661548716882,-0.6383,0.3402,0.0905,-9.75,8.36,14.77,
70030,1661548716882,-0.6266,0.1327,-0.1971,-12.36,1.51,9.84,
70031,1661548716882,-0.7496,0.3099,-0.1707,-10.25,-3.07,12.22,
70032,1661548716882,-0.6422,0.5272,-0.0599,-5.55,4.04,8.2,
70033,1661548716882,-0.6852,0.4052,-0.0789,-3.05,22.06,12.77,
70034,1661548716890,-0.6891,0.2562,-0.554,-3.66,19.6,6.74,
70035,1661548716890,-0.671,0.2289,-0.5365,-12.14,3.53,7.47,
70036,1661548716890,-0.8619,0.4305,0.0612,-10.66,-6.96,9.03,
70037,1661548716890,-0.8023,0.2294,-0.5238,-5.75,-19.05,3.64,
70038,1661548716890,-0.7022,0.0643,-0.7352,-1.66,-11.53,6.56,
70039,1661548716890,-0.8297,0.1893,-0.0911,-4.36,7.84,4.74,
70040,1661548716890,-0.9693,0.1932,0.318,-8.65,9.2,7.56,
70041,1661548716890,-0.9762,-0.1149,-0.3426,-8.96,-2.55,3.64,
70042,1661548716890,-1.1061,-0.0494,0.0275,-12.86,-11.86,7.56,
70043,1661548716890,-1.0978,0.0746,0.5021,-13.26,-3.48,6.74,
70044,1661548716890,-1.11,-0.025,0.1598,-11.15,-3.07,5.92,
70045,1661548716890,-1.0563,-0.1783,-0.3797,-15.26,-1.62,3.92,
70046,1661548716890,-1.1905,-0.0836,0.3151,-18.55,-5.68,-1.01,
70047,1661548716890,-1.2501,-0.003,0.2384,-14.14,-11.19,0.82,
70048,1661548716890,-1.068,-0.2003,-0.3704,-15.64,-12.18,1.81,
70049,1661548716890,-1.2457,0.0302,0.2546,-25.74,-11.6,-0.28,
70050,1661548716890,-1.0885,-0.0055,0.4894,-21.85,-4.58,-3.56,
70051,1661548716890,-1.1495,-0.0016,-0.1805,-14.14,3.95,-7.21,
70052,1661548716890,-1.1852,-0.0123,-0.0975,-17.36,-2.72,-4.84,
70053,1661548716898,-1.3648,0.1342,0.818,-26.35,-5.44,-7.39,
70054,1661548716898,-1.3009,0.139,0.3937,-23.86,3.61,-3.47,
70055,1661548716899,-1.0953,0.0541,-0.2835,-20.17,-1.21,-1.84,
70056,1661548716899,-0.9439,0.1127,-0.304,-26.82,10.07,-7.85,
70057,1661548716899,-1.1129,0.2592,0.7438,-26.96,12.32,-7.57,
70058,1661548716899,-1.1749,-0.0778,-0.0809,-21.54,-6.78,-6.21,
70059,1661548716899,-1.214,0.1058,-0.2674,-25.25,-2.98,-4.2,
70060,1661548716899,-1.4313,0.2147,0.8478,-30.44,13.68,-2.55,
70061,1661548716899,-1.2628,0.038,0.1193,-29.45,-0.45,-1.84,
70062,1661548716899,-1.1881,-0.0651,-0.2738,-28.44,-8.82,-0.0,
70063,1661548716899,-1.2804,0.1796,0.7179,-24.25,6.66,-1.01,
70064,1661548716899,-1.19,0.1766,0.6491,-19.06,13.76,-0.92,
70065,1661548716899,-0.9483,0.0248,-0.1722,-22.76,7.84,1.0,
70066,1661548716899,-1.0895,0.0521,0.0348,-27.74,4.63,-0.28,
70067,1661548716899,-0.9659,0.1063,0.4137,-27.86,6.33,4.47,
70068,1661548716899,-1.0274,0.0131,-0.1844,-23.74,5.47,1.72,
70069,1661548716899,-0.9796,0.0409,-0.2962,-18.66,1.41,8.02,
70070,1661548716899,-0.8824,0.1293,0.0939,-18.55,1.58,5.11,
70071,1661548716899,-1.0089,0.2489,0.6335,-20.86,4.47,3.28,
70072,1661548716907,-0.6822,0.0643,-0.1414,-19.33,-2.89,3.55,
70073,1661548716907,-0.7799,0.2079,-0.2557,-19.06,9.62,-0.92,
70074,1661548716907,-0.7374,0.33,0.5397,-18.45,26.19,4.37,
70075,1661548716907,-0.7208,0.2577,0.1086,-17.56,25.6,3.37,
70076,1661548716907,-0.69,0.2841,-0.4818,-15.24,9.88,3.18,
70077,1661548716907,-0.6583,0.2411,-0.4422,-13.87,9.87,0.36,
70078,1661548716907,-0.7218,0.493,0.423,-14.05,18.0,3.18,
70079,1661548716907,-0.6021,0.2513,-0.5921,-14.85,1.34,6.19,
70080,1661548716907,-0.6593,0.3856,-0.6927,-16.55,-4.17,2.18,
70081,1661548716907,-0.818,0.5097,-0.0462,-13.05,2.77,6.37,
70082,1661548716907,-0.7604,0.4794,0.3439,-8.97,8.36,5.11,
70083,1661548716907,-0.6324,0.3075,-0.6473,-2.56,2.85,6.83,
70084,1661548716907,-0.6988,0.2694,-0.3094,-6.76,9.29,3.09,
70085,1661548716907,-0.7657,0.3412,0.5451,-10.27,13.94,4.47,
70086,1661548716907,-0.8307,0.1571,0.2233,-7.46,-1.45,4.47,
70087,1661548716907,-0.7486,-0.0304,-0.8729,-3.25,-8.31,4.92,
70088,1661548716907,-0.8102,0.1849,-0.0003,-6.56,4.97,2.54,
70089,1661548716915,-0.9386,0.1444,0.3717,-6.45,8.95,0.82,
70090,1661548716915,-0.7882,-0.1749,-0.7796,-7.57,-5.77,-0.83,
70091,1661548716916,-0.7857,-0.0387,-0.7122,-11.47,-9.74,-0.65,
70092,1661548716916,-0.8341,0.1366,0.4884,-8.06,-2.55,5.73,
70093,1661548716916,-0.9239,-0.069,0.1056,-5.75,-7.3,4.37,
70094,1661548716917,-0.8463,-0.0367,-0.4671,-10.66,0.41,5.92,
70095,1661548716917,-1.0875,0.1195,0.3434,-15.67,6.83,6.01,
70096,1661548716917,-1.1246,0.1766,0.173,-15.04,-5.27,-0.46,
70097,1661548716917,-1.0455,0.0346,-0.4847,-9.37,-15.32,3.64,
70098,1661548716917,-1.0475,0.1307,-0.2391,-11.85,0.91,-0.55,
70099,1661548716917,-1.172,0.2728,0.2458,-14.66,8.02,4.37,
70100,1661548716917,-1.2652,0.0292,-0.055,-15.96,1.17,-2.83,
70101,1661548716917,-1.1422,0.121,-0.3162,-17.76,-10.85,-0.92,
70102,1661548716917,-1.1461,0.2372,0.1325,-15.73,-9.48,-4.57,
70103,1661548716917,-1.2457,0.1034,0.1974,-15.65,-3.48,-1.01,
70104,1661548716917,-1.1915,0.0287,-0.0301,-17.45,-2.48,-2.74,
70105,1661548716917,-1.2101,0.1107,0.1525,-20.05,-5.68,3.55,
70106,1661548716917,-1.3077,0.0072,0.1628,-18.14,-5.93,0.91,
70107,1661548716917,-1.3243,-0.1119,0.2262,-15.14,8.78,3.18,
70108,1661548716917,-1.3443,-0.0953,0.1486,-20.45,0.91,5.55,
70109,1661548716917,-1.2784,-0.0514,0.03,-23.83,-5.59,-2.74,
70110,1661548716917,-1.256,-0.1295,0.3219,-28.24,-6.96,3.28,
70111,1661548716925,-1.2696,-0.1451,0.2399,-23.45,-1.38,-0.0,
70112,1661548716925,-1.1417,-0.1271,-0.0662,-23.96,-3.82,6.1,
70113,1661548716925,-1.3966,-0.0958,0.2048,-32.06,-2.72,-3.47,
70114,1661548716925,-1.297,-0.0362,0.7526,-27.94,-3.82,1.72,
70115,1661548716925,-1.2677,-0.0651,0.05,-27.95,-3.58,-2.92,
70116,1661548716925,-1.2799,0.0546,0.1076,-27.27,10.05,0.64,
70117,1661548716925,-1.4146,0.1132,0.6979,-28.73,14.54,-2.64,
70118,1661548716925,-1.1744,0.2181,0.172,-29.84,5.31,-0.65,
70119,1661548716925,-1.0758,0.2797,-0.1556,-28.43,1.52,-1.19,
70120,1661548716925,-0.9317,0.3363,0.0646,-24.84,10.55,-4.2,
70121,1661548716925,-1.0094,0.2328,0.2384,-26.15,16.81,-4.66,
70122,1661548716925,-1.0221,0.2509,-0.3026,-24.26,13.09,-6.47,
70123,1661548716925,-0.9996,0.3016,-0.2918,-22.44,3.53,-2.02,
70124,1661548716931,-1.0533,0.3031,0.2936,-19.55,2.18,-0.83,
70125,1661548716931,-0.984,0.2743,-0.0697,-19.26,3.61,2.45,
70126,1661548716931,-0.8888,0.2426,-0.2655,-17.45,5.73,-0.92,
70127,1661548716931,-0.8614,0.2606,0.4079,-19.13,13.44,-2.11,
70128,1661548716931,-0.8614,0.142,0.4157,-17.55,4.04,-0.55,
70129,1661548716934,-0.7467,0.0101,-0.2386,-15.46,6.33,3.92,
70130,1661548716934,-0.8014,0.1683,0.0754,-15.46,8.77,6.92,
70131,1661548716934,-0.8365,0.1215,0.1779,-17.36,9.03,2.27,
70132,1661548716934,-0.7325,-0.0436,-0.3768,-16.36,3.53,10.94,
70133,1661548716934,-0.8063,0.0297,-0.3602,-13.17,6.83,5.73,
70134,1661548716934,-0.7589,0.1698,0.1672,-13.95,6.07,6.65,
70135,1661548716934,-0.9542,0.1708,-0.0159,-12.05,-3.07,11.21,
70136,1661548716934,-0.7032,0.1342,-0.264,-14.86,-10.26,5.46,
70137,1661548716934,-0.7501,0.3265,0.1652,-13.66,8.6,5.11,
70138,1661548716934,-0.7159,0.2836,0.0109,-8.06,15.88,10.75,
70139,1661548716934,-0.8395,0.1425,-0.4124,-9.66,13.09,12.49,
70140,1661548716939,-0.6319,0.3695,-0.2015,-9.46,14.69,11.58,
70141,1661548716939,-0.7262,0.4476,0.2101,-10.02,6.75,8.85,
70142,1661548716939,-0.7208,0.2347,-0.5794,-4.77,-1.88,6.83,
70143,1661548716939,-0.7394,0.1718,-0.7371,-7.67,-4.84,11.21,
70144,1661548716939,-0.9762,0.3998,0.1872,-11.95,10.46,4.74,
70145,1661548716939,-0.9049,0.3529,-0.3309,-13.03,0.42,1.0,
70146,1661548716939,-0.6861,0.1039,-0.7703,-7.66,-13.3,1.09,
70147,1661548716939,-0.794,0.1312,-0.2293,-8.15,-7.71,1.19,
70148,1661548716939,-0.9723,0.3231,0.464,-6.25,-3.48,0.91,
70149,1661548716939,-0.9864,-0.1178,-0.4383,-3.36,-4.84,2.54,
70150,1661548716939,-1.0572,-0.0636,-0.1239,-9.76,1.67,1.28,
70151,1661548716939,-1.1026,0.0438,0.5036,-15.67,4.13,-0.74,
70152,1661548716939,-1.0582,-0.0113,0.2648,-17.35,-11.02,-3.56,
70153,1661548716939,-1.1134,-0.1764,-0.471,-6.45,-9.74,-0.65,
70154,1661548716939,-1.0665,-0.172,0.1388,-12.25,0.74,0.45,
70155,1661548716939,-1.2594,0.0116,0.4103,-22.55,-8.64,-1.01,
70156,1661548716939,-1.0733,-0.173,-0.2552,-20.26,-16.26,2.18,
70157,1661548716939,-1.2125,-0.0821,0.0011,-17.85,-5.44,0.45,
70158,1661548716939,-1.1017,0.0795,0.634,-16.65,12.16,-2.92,
70159,1661548716947,-1.295,-0.1056,0.0129,-23.65,-2.39,-5.57,
70160,1661548716947,-1.2892,-0.0118,-0.4085,-20.17,-13.89,-7.85,
70161,1661548716948,-1.4903,0.0917,0.5343,-17.85,2.94,-1.38,
70162,1661548716948,-1.3097,0.2035,0.8112,-21.15,18.24,-2.48,
70163,1661548716948,-1.1783,0.0897,0.0446,-27.72,4.31,-4.2,
70164,1661548716948,-1.0328,-0.0026,-0.5521,-25.65,-9.07,-4.93,
70165,1661548716948,-1.2755,0.285,0.653,-22.83,2.53,-5.3,
70166,1661548716948,-1.3961,0.0331,0.2765,-21.65,-0.52,-5.57,
70167,1661548716948,-1.3121,0.0043,-0.4461,-28.55,-6.78,-7.76,
70168,1661548716948,-1.4195,0.223,0.7472,-31.65,2.68,-7.57,
70169,1661548716948,-1.3663,0.2103,0.9728,-28.44,3.11,-2.48,
70170,1661548716953,-1.1354,-0.0494,-0.2015,-20.64,-5.18,-4.93,
70171,1661548716953,-1.1686,-0.0289,-0.0076,-23.85,21.2,-1.19,
70172,1661548716953,-1.3238,0.1884,0.839,-27.92,18.6,-3.74,
70173,1661548716953,-1.0958,0.035,-0.0496,-25.83,-1.03,3.0,
70174,1661548716953,-1.1339,0.0028,-0.1751,-22.25,-5.1,0.18,
70175,1661548716953,-1.0709,0.1596,0.4684,-26.26,13.35,3.0,
70176,1661548716953,-1.0074,-0.0162,-0.0701,-27.66,9.36,3.28,
70177,1661548716953,-0.9518,-0.0421,-0.3089,-24.15,0.74,3.55,
70178,1661548716953,-0.9361,0.1122,-0.0389,-16.75,-0.69,3.37,
70179,1661548716953,-1.1173,0.2567,0.4806,-17.94,6.91,1.99,
70180,1661548716953,-0.8258,0.1254,0.1618,-19.65,12.75,7.84,
70181,1661548716953,-0.9879,0.1415,-0.2777,-22.66,8.86,2.91,
70182,1661548716953,-0.7936,0.266,0.2243,-25.15,8.27,5.11,
70183,1661548716953,-0.6588,0.2997,0.4137,-19.67,15.12,-0.19,
70184,1661548716953,-0.5045,0.2894,0.008,-10.76,25.69,-1.84,
70185,1661548716953,-0.6378,0.1596,-0.6532,-14.16,10.89,0.64,
70186,1661548716953,-0.7696,0.4281,0.1452,-21.53,10.74,-4.11,
70187,1661548716953,-0.8209,0.306,0.0387,-18.55,-1.21,4.92,
70188,1661548716953,-0.8072,0.2802,-0.8822,-13.96,-7.8,-2.74,
70189,1661548716961,-0.8282,0.4974,0.0842,-15.67,9.2,7.93,
70190,1661548716961,-0.7481,0.5194,0.4831,-15.46,13.85,-0.55,
70191,1661548716961,-0.6603,0.3915,-0.2083,-9.26,-0.69,3.92,
70192,1661548716961,-0.6124,0.2181,-0.8446,-7.17,-4.75,-0.19,
70193,1661548716961,-0.7364,0.3285,0.3605,-7.96,15.12,-1.56,
70194,1661548716961,-0.8102,0.181,-0.0203,-7.96,16.9,1.28,
70195,1661548716961,-0.6861,-0.0729,-1.0487,-6.74,-1.61,0.55,
70196,1661548716961,-0.6583,0.0482,-0.6663,-7.05,-3.32,2.64,
70197,1661548716961,-0.9439,0.2645,0.5041,-5.96,-0.52,-1.01,
70198,1661548716961,-0.7428,-0.1451,-0.4769,-4.38,-9.33,8.85,
70199,1661548716961,-0.8165,0.0482,-0.5472,-12.05,-10.59,0.82,
70200,1661548716961,-0.8033,0.0482,0.6471,-16.25,-1.62,7.11,
70201,1661548716961,-0.8473,-0.0001,-0.0057,-13.56,-5.44,0.27,
70202,1661548716961,-0.734,-0.0216,-0.4852,-7.16,1.75,9.2,
70203,1661548716961,-0.8951,0.0512,-0.1322,-10.95,10.72,-0.46,
70204,1661548716961,-1.0367,0.2196,0.486,-12.85,2.94,4.65,
70205,1661548716961,-0.9591,-0.0099,-0.4505,-14.25,-6.7,-1.93,
70206,1661548716969,-0.9366,0.1532,-0.3597,-13.52,-4.74,0.64,
70207,1661548716969,-1.0831,0.2802,0.2331,-14.13,0.25,-1.38,
70208,1661548716969,-1.1441,-0.0206,-0.1868,-13.27,-0.28,4.74,
70209,1661548716969,-1.1065,0.1185,-0.3739,-17.16,-13.81,-1.01,
70210,1661548716969,-1.256,0.2025,0.3356,-17.87,-12.03,0.09,
70211,1661548716969,-1.2579,0.1459,0.4611,-18.16,-3.07,-1.84,
70212,1661548716969,-1.1969,0.0048,0.0441,-20.35,-2.22,1.35,
70213,1661548716969,-1.2047,0.0018,0.0822,-22.75,-5.86,-6.12,
70214,1661548716969,-1.2613,-0.027,0.2609,-20.86,-8.82,-2.48,
70215,1661548716969,-1.2594,-0.0875,0.2345,-15.73,10.74,-2.11,
70216,1661548716969,-1.3438,-0.1139,0.0407,-24.57,2.77,0.36,
70217,1661548716969,-1.3185,-0.0885,0.1281,-24.37,-5.86,-4.84,
70218,1661548716969,-1.3766,-0.1656,0.3298,-26.15,-11.27,-2.48,
70219,1661548716969,-1.2179,-0.1359,0.0207,-25.94,-1.12,-3.28,
70220,1661548716969,-0.9488,-0.1378,-0.1219,-28.94,-3.24,-2.38,
70221,1661548716977,-1.3868,-0.0319,0.4723,-32.76,-7.3,-1.56,
70222,1661548716977,-1.212,-0.0099,0.7062,-23.76,0.06,-3.83,
70223,1661548716977,-1.1881,-0.0387,-0.033,-26.64,8.36,-1.56,
70224,1661548716977,-1.2203,0.0985,0.3986,-30.35,13.35,-1.84,
70225,1661548716977,-1.3434,0.1122,0.6867,-34.24,6.66,-3.19,
70226,1661548716977,-1.1744,0.2216,0.0304,-27.95,2.27,-0.28,
70227,1661548716977,-1.1314,0.3007,-0.0701,-23.86,10.89,0.36,
70228,1661548716977,-0.8878,0.3529,0.1423,-26.46,13.51,-4.38,
70229,1661548716977,-0.9605,0.224,0.0929,-28.15,11.39,-1.74,
70230,1661548716977,-0.9908,0.2821,-0.2391,-26.06,6.91,-4.38,
70231,1661548716977,-1.0104,0.3007,-0.1917,-21.06,0.15,-2.48,
70232,1661548716977,-1.0372,0.2806,0.2604,-24.73,8.2,-1.47,
70233,1661548716977,-0.9571,0.2225,-0.0379,-21.67,6.33,-3.1,
70234,1661548716977,-0.8844,0.2372,-0.1976,-21.15,6.16,-2.92,
70235,1661548716977,-0.8351,0.2445,0.0895,-17.45,12.58,-4.66,
70236,1661548716977,-0.8419,0.0931,0.2106,-16.95,8.86,0.45,
70237,1661548716977,-0.6861,0.0106,-0.2552,-19.67,15.38,0.64,
70238,1661548716977,-0.8536,0.1835,-0.0174,-21.47,12.49,3.83,
70239,1661548716977,-0.8141,0.1351,0.05,-20.25,4.37,1.54,
70240,1661548716985,-0.8316,-0.0338,-0.432,-15.15,-6.11,7.75,
70241,1661548716985,-0.8131,0.1083,-0.0277,-11.55,5.23,7.66,
70242,1661548716985,-0.732,0.1708,0.2077,-16.45,7.76,9.38,
70243,1661548716985,-0.9464,0.2196,-0.0482,-11.47,-2.55,15.04,
70244,1661548716985,-0.5567,0.1332,-0.3353,-14.85,-5.27,6.83,
70245,1661548716985,-0.6949,0.3978,0.4064,-12.66,20.37,7.84,
70246,1661548716985,-0.6427,0.2138,-0.0609,-9.15,16.38,11.03,
70247,1661548716985,-0.7496,0.205,-0.6224,-11.17,4.3,7.01,
70248,1661548716985,-0.609,0.4535,-0.1732,-10.76,6.07,1.54,
70249,1661548716985,-0.7169,0.4559,0.2507,-6.45,6.5,8.57,
70250,1661548716985,-0.6314,0.1962,-0.8978,-4.85,-0.78,6.28,
70251,1661548716985,-0.6983,0.1596,-0.6986,-9.46,1.08,4.92,
70252,1661548716985,-0.9181,0.4594,0.3991,-14.36,15.12,0.91,
70253,1661548716985,-0.8482,0.5155,0.2419,-11.15,-0.95,-3.28,
70254,1661548716985,-0.7071,0.0087,-0.9422,-7.46,-18.88,-0.37,
70255,1661548716985,-0.8028,0.1805,0.0134,-7.95,-5.18,-2.38,
70256,1661548716985,-0.9342,0.267,0.5231,-6.67,3.95,-0.65,
70257,1661548716985,-0.9337,-0.1578,-0.5042,-8.65,5.06,-3.74,
70258,1661548716993,-1.0436,-0.0655,-0.054,-15.14,1.43,-2.92,
70259,1661548716993,-1.0826,-0.0074,0.5295,-18.05,-6.54,-4.84,
70260,1661548716993,-1.0714,-0.0553,0.1633,-10.07,-13.89,-1.56,
70261,1661548716993,-1.0743,-0.1549,-0.577,-8.27,-3.74,-6.4,
70262,1661548716993,-1.0665,-0.1544,0.1877,-18.86,-3.32,-6.66,
70263,1661548716993,-1.2218,0.0429,0.4689,-18.36,-13.72,-10.04,
70264,1661548716993,-1.0567,-0.2047,-0.2796,-17.65,-11.02,1.81,
70265,1661548716993,-1.214,0.0043,0.0993,-22.64,-6.87,-6.93,
70266,1661548716993,-1.1021,0.1073,0.7809,-27.74,-6.37,0.64,
70267,1661548716993,-1.2062,-0.0939,-0.0667,-19.74,-8.23,-3.01,
70268,1661548716993,-1.2232,-0.0148,-0.4373,-14.85,3.78,2.45,
70269,1661548716993,-1.4786,0.162,0.8512,-25.86,9.62,-0.19,
70270,1661548716993,-1.4313,0.1893,0.3791,-29.05,5.06,-2.02,
70271,1661548716993,-1.0499,0.017,-0.4041,-27.14,-13.72,-1.01,
70272,1661548716993,-0.9537,0.038,-0.47,-24.35,3.2,2.91,
70273,1661548716993,-1.2008,0.3358,0.8761,-24.84,13.68,-0.46,
70274,1661548716993,-1.2662,-0.0548,-0.1165,-27.56,-3.91,-0.74,
70275,1661548717001,-1.2872,0.0209,-0.3367,-28.15,-9.74,-2.11,
70276,1661548717001,-1.4688,0.225,1.0119,-30.15,8.02,-3.01,
70277,1661548717001,-1.2779,0.0077,0.2253,-28.15,12.83,-3.93,
70278,1661548717001,-1.1842,-0.0983,-0.3079,-29.83,9.21,-8.76,
70279,1661548717001,-1.1461,-0.0011,0.2843,-28.04,8.69,-7.85,
70280,1661548717001,-1.3092,0.1537,0.8522,-23.74,-4.0,-7.3,
70281,1661548717001,-1.0338,-0.0162,-0.1234,-22.17,1.84,-2.83,
70282,1661548717001,-1.1759,0.0121,-0.0609,-29.27,7.59,-1.65,
70283,1661548717001,-0.9835,0.1268,0.4079,-31.95,8.1,3.09,
70284,1661548717001,-1.0201,-0.0587,-0.1536,-28.84,-0.28,1.28,
70285,1661548717001,-1.0396,0.0756,-0.1639,-19.87,5.31,3.09,
70286,1661548717001,-0.9083,0.1493,0.0177,-22.25,4.63,6.01,
70287,1661548717001,-1.0367,0.2338,0.4426,-25.83,12.67,5.02,
70288,1661548717001,-0.7232,0.143,0.154,-27.85,4.63,3.55,
70289,1661548717001,-0.8868,0.143,-0.3314,-25.16,-2.22,7.84,
70290,1661548717009,-0.7638,0.3007,0.2384,-21.85,11.06,11.03,
70291,1661548717009,-0.8111,0.3085,0.3395,-18.36,28.48,8.02,
70292,1661548717009,-0.6549,0.307,-0.1556,-15.65,22.9,13.03,
70293,1661548717009,-0.7228,0.2787,-0.6278,-22.06,7.33,5.37,
70294,1661548717009,-0.7696,0.4384,0.2677,-24.46,12.75,9.65,
70295,1661548717009,-0.691,0.2997,-0.0853,-18.46,-0.62,8.11,
70296,1661548717009,-0.7418,0.3285,-0.7103,-16.84,-3.91,5.73,
70297,1661548717009,-0.7447,0.4862,0.1872,-21.27,4.88,2.36,
70298,1661548717009,-0.7765,0.4677,0.4313,-14.45,6.57,8.2,
70299,1661548717009,-0.6202,0.3558,-0.2533,-5.06,8.69,6.37,
70300,1661548717009,-0.6363,0.1932,-0.6151,-5.25,5.31,3.73,
70301,1661548717009,-0.6666,0.2465,0.2316,-8.15,19.68,-0.19,
70302,1661548717009,-0.7809,0.1141,-0.1463,-10.85,8.52,4.28,
70303,1661548717009,-0.8097,-0.0182,-0.6727,-11.44,-8.46,3.46,
70304,1661548717009,-0.7584,0.057,-0.5096,-5.16,-4.25,4.28,
70305,1661548717009,-0.9112,0.1625,0.4045,-6.24,6.01,5.46,
70306,1661548717009,-0.7364,-0.1378,-0.3807,-7.75,0.82,10.02,
70307,1661548717009,-0.8312,0.0609,-0.4539,-16.16,-9.07,7.84,
70308,1661548717009,-0.7838,-0.0509,0.5304,-17.87,-6.78,8.39,
70309,1661548717009,-0.8497,0.101,0.0734,-15.75,-5.35,8.39,
70310,1661548717017,-0.8673,0.0805,-0.4158,-10.47,3.53,12.49,
70311,1661548717017,-0.9825,0.0228,-0.2244,-10.85,15.12,8.39,
70312,1661548717017,-1.0792,0.2743,0.4865,-16.77,7.09,5.92,
70313,1661548717017,-1.0396,0.0028,-0.4466,-18.84,-11.43,3.09,
70314,1661548717017,-0.9391,0.181,-0.4168,-16.14,-9.83,4.19,
70315,1661548717017,-1.0865,0.2445,0.3747,-14.36,2.27,-0.0,
70316,1661548717017,-1.2735,0.122,0.2834,-17.06,8.02,4.92,
70317,1661548717017,-1.1007,0.0931,-0.4383,-20.25,-10.43,-4.57,
70318,1661548717017,-1.1539,0.1781,-0.0374,-19.27,-9.07,-0.46,
70319,1661548717017,-1.2931,0.1508,0.611,-15.65,0.41,-4.2,
70320,1661548717017,-1.1988,-0.0314,-0.1038,-21.35,-1.45,-4.75,
70321,1661548717017,-1.148,-0.0079,-0.0628,-26.37,-3.82,-8.31,
70322,1661548717017,-1.2569,-0.0236,0.2712,-23.04,-0.28,1.45,
70323,1661548717017,-1.1705,-0.1178,0.0929,-18.77,9.46,1.19,
70324,1661548717017,-1.3321,-0.1075,-0.0252,-22.84,-1.45,-2.38,
70325,1661548717017,-1.3146,-0.0426,0.0319,-29.45,-13.55,-2.55,
70326,1661548717017,-1.1979,-0.1119,0.3151,-27.34,-5.86,-3.93,
70327,1661548717025,-1.254,-0.1495,0.2214,-26.56,7.93,-2.11,
70328,1661548717025,-0.9791,-0.1075,0.0182,-30.84,-0.86,-1.1,
70329,1661548717025,-1.2979,-0.007,0.4484,-35.06,-11.02,1.63,
70330,1661548717025,-1.1935,0.0429,0.6164,-25.16,1.92,-3.1,
70331,1661548717025,-1.1515,0.017,0.0392,-20.95,12.16,3.37,
70332,1661548717025,-1.1412,0.1005,0.3132,-30.55,21.8,0.09,
70333,1661548717028,-1.4044,0.1342,0.5265,-34.74,20.79,2.91,
70334,1661548717028,-1.1627,0.2787,0.4045,-33.75,1.41,1.0,
70335,1661548717028,-1.0299,0.2836,-0.1688,-29.14,-7.3,-2.48,
70336,1661548717028,-0.9205,0.3666,0.0939,-25.07,9.2,0.09,
70337,1661548717028,-0.9269,0.2601,0.2052,-24.57,19.51,-0.65,
70338,1661548717028,-0.9405,0.3178,-0.1268,-28.84,17.83,-1.56,
70339,1661548717028,-1.0099,0.2806,-0.203,-29.84,-5.86,-1.1,
70340,1661548717028,-1.0323,0.2528,0.0802,-24.76,5.31,2.64,
70341,1661548717028,-0.9752,0.3192,0.2839,-20.66,11.73,-1.38,
70342,1661548717028,-0.8697,0.2387,-0.2479,-19.27,9.96,-1.29,
70343,1661548717028,-0.7838,0.2152,0.0636,-18.46,14.52,1.09,
70344,1661548717028,-0.8131,0.0692,0.1008,-18.16,7.93,2.82,
70345,1661548717028,-0.5987,0.0199,-0.2323,-19.73,6.75,4.47,
70346,1661548717028,-0.7726,0.0927,-0.2454,-23.74,3.7,3.09,
70347,1661548717028,-0.8697,0.1527,0.1149,-21.96,4.47,9.84,
70348,1661548717028,-0.7384,0.0365,-0.1663,-20.25,-2.55,16.14,
70349,1661548717028,-0.8004,0.0604,-0.2254,-16.65,0.82,9.38,
70350,1661548717028,-0.7345,0.1742,0.3371,-15.46,9.53,12.31,
70351,1661548717028,-0.9176,0.1967,-0.0213,-18.46,0.57,7.66,
70352,1661548717028,-0.8243,0.1537,-0.2327,-18.36,-1.97,12.86,
70353,1661548717037,-0.8644,0.2919,0.1657,-17.45,10.22,5.92,
70354,1661548717037,-0.7066,0.4052,0.2111,-12.05,15.97,12.22,
70355,1661548717037,-0.7115,0.1605,-0.7791,-10.95,10.98,10.57,
70356,1661548717037,-0.609,0.4091,-0.1248,-13.37,14.78,2.82,
70357,1661548717037,-0.7418,0.4139,0.1945,-12.25,7.67,6.19,
70358,1661548717037,-0.65,0.2367,-0.9329,-11.37,-12.53,4.01,
70359,1661548717037,-0.8272,0.1537,-1.1341,-11.26,-10.43,3.64,
70360,1661548717037,-0.8419,0.3265,0.1569,-17.45,19.34,0.64,
70361,1661548717037,-0.8302,0.452,0.2463,-16.05,5.4,-1.1,
70362,1661548717037,-0.7042,-0.0362,-1.0057,-10.66,-11.69,0.73,
70363,1661548717037,-0.8453,0.2299,0.1452,-9.67,-9.92,-1.19,
70364,1661548717037,-0.9728,0.1503,0.5348,-10.36,6.16,-1.65,
70365,1661548717037,-0.9122,-0.1549,-0.6131,-12.95,5.56,-4.84,
70366,1661548717037,-1.0479,-0.0348,-0.014,-21.25,7.67,-3.28,
70367,1661548717037,-1.1783,0.0297,0.5207,-19.06,-9.83,1.72,
70368,1661548717045,-1.0841,-0.0641,0.0822,-14.57,-21.5,2.64,
70369,1661548717045,-1.0943,-0.1525,-0.5413,-13.06,-9.92,0.27,
70370,1661548717045,-1.1119,-0.1178,0.3454,-21.53,-0.6,-3.19,
70371,1661548717045,-1.2242,0.0394,0.5695,-22.06,-2.55,-2.83,
70372,1661548717045,-1.0396,-0.2369,-0.3636,-20.84,-7.47,-3.01,
70373,1661548717045,-1.1549,0.0712,0.1125,-24.76,-5.77,0.64,
70374,1661548717045,-1.1124,0.1249,0.8234,-29.05,-0.36,-5.02,
70375,1661548717045,-1.1471,-0.0753,-0.2782,-26.05,-6.54,-1.29,
70376,1661548717045,-1.2008,-0.0372,-0.6932,-17.04,-1.21,-1.56,
70377,1661548717045,-1.4078,0.1185,0.342,-26.05,10.63,-0.37,
70378,1661548717045,-1.3141,0.264,0.8078,-32.44,-1.45,-0.0,
70379,1661548717045,-1.0274,-0.0416,-0.7113,-28.84,-14.56,1.81,
70380,1661548717045,-0.9693,0.1132,-0.1536,-28.55,6.33,-1.1,
70381,1661548717045,-1.1695,0.3246,0.9113,-27.45,16.81,0.73,
70382,1661548717045,-1.1988,-0.0436,-0.1917,-25.86,0.32,0.27,
70383,1661548717045,-1.2511,0.0306,-0.1219,-31.66,-5.94,-1.56,
70384,1661548717045,-1.4542,0.1825,1.1076,-34.74,12.08,-3.74,
70385,1661548717045,-1.2809,0.1224,0.7946,-30.65,16.22,-4.11,
70386,1661548717045,-1.0509,-0.0861,-0.4598,-30.53,8.78,-5.48,
70387,1661548717053,-1.1329,0.058,0.3605,-33.16,1.58,-5.21,
70388,1661548717053,-1.2828,0.1581,0.8009,-30.26,-5.1,-2.11,
70389,1661548717053,-0.9537,-0.0099,-0.2415,-25.65,-1.55,1.09,
70390,1661548717053,-1.1314,0.0604,-0.0521,-33.16,10.39,-0.19,
70391,1661548717053,-0.881,0.1224,0.4821,-35.66,12.25,3.46,
70392,1661548717053,-1.0128,-0.0441,-0.0819,-27.34,-3.65,6.47,
70393,1661548717053,-0.9552,0.017,-0.2069,-22.75,5.14,5.11,
70394,1661548717053,-0.9586,0.2079,0.0729,-23.05,0.48,7.47,
70395,1661548717053,-0.9938,0.2953,0.4377,-27.75,13.85,6.19,
70396,1661548717053,-0.7208,0.1845,0.0324,-26.75,8.95,0.64,
70397,1661548717053,-0.795,0.2294,-0.3275,-26.56,6.74,2.82,
70398,1661548717053,-0.8224,0.3226,-0.0491,-27.14,13.42,5.82,
70399,1661548717053,-0.8766,0.3641,0.3918,-21.36,29.67,7.75,
70400,1661548717053,-0.5924,0.3329,-0.4144,-16.45,17.57,5.92,
70401,1661548717053,-0.6964,0.2728,-0.5692,-22.05,7.5,5.55,
70402,1661548717053,-0.7921,0.4725,0.4303,-23.92,12.84,7.11,
70403,1661548717053,-0.651,0.2616,-0.4041,-23.54,-2.14,6.19,
70404,1661548717061,-0.7418,0.3431,-0.6092,-20.35,-2.48,3.92,
70405,1661548717061,-0.8985,0.4379,-0.0565,-17.65,9.46,4.47,
70406,1661548717061,-0.8414,0.4115,0.3937,-15.47,15.12,8.57,
70407,1661548717061,-0.6075,0.3358,-0.5262,-7.17,11.48,5.92,
70408,1661548717061,-0.6944,0.2597,-0.4349,-10.15,8.43,6.92,
70409,1661548717061,-0.7252,0.2006,0.2228,-13.27,13.42,5.02,
70410,1661548717061,-0.7848,0.0477,-0.4046,-17.87,-0.86,6.92,
70411,1661548717061,-0.7921,-0.0157,-0.7503,-11.26,-6.2,6.74,
70412,1661548717061,-0.8707,0.1278,-0.2581,-12.13,1.0,6.92,
70413,1661548717061,-0.8614,0.1312,0.3268,-11.76,5.4,7.38,
70414,1661548717061,-0.7535,-0.089,-0.4295,-12.85,-8.14,10.02,
70415,1661548717061,-0.859,0.0722,-0.2562,-15.55,-10.59,8.02,
70416,1661548717061,-0.8414,-0.0182,0.5099,-15.15,6.57,11.21,
70417,1661548717061,-0.8844,0.1288,-0.0374,-16.97,11.39,8.48,
70418,1661548717061,-0.7569,0.0482,-0.5423,-19.55,7.09,11.03,
70419,1661548717061,-1.0182,0.0629,-0.1317,-17.85,5.81,3.55,
70420,1661548717061,-1.0733,0.2328,0.3722,-17.47,-5.1,2.91,
70421,1661548717061,-1.0543,0.0512,-0.598,-15.46,-11.95,4.83,
70422,1661548717061,-0.9913,0.2138,-0.4168,-20.96,2.34,-3.28,
70423,1661548717070,-1.1363,0.2382,0.5412,-21.96,10.63,-2.2,
70424,1661548717070,-1.0826,0.1151,-0.0921,-21.03,-7.53,-2.55,
70425,1661548717071,-1.0426,0.1224,-0.4232,-19.13,-20.39,-2.02,
70426,1661548717071,-1.233,0.1937,0.6745,-19.96,4.54,-6.66,
70427,1661548717071,-1.3019,0.1054,0.6974,-21.54,1.17,-5.76,
70428,1661548717071,-1.1856,-0.1237,-0.2176,-24.95,-5.27,-4.38,
70429,1661548717071,-1.2052,-0.0211,0.0544,-22.44,5.4,-8.76,
70430,1661548717073,-1.2965,-0.0572,0.3747,-24.64,12.08,-5.39,
70431,1661548717073,-1.1686,-0.1559,-0.0946,-30.36,-7.13,-9.77,
70432,1661548717073,-1.3233,-0.048,-0.0003,-32.15,-15.16,-6.66,
70433,1661548717073,-1.2057,-0.1222,0.2941,-24.06,-3.48,-4.93,
70434,1661548717073,-1.3434,-0.1471,0.3049,-30.15,4.8,1.54,
70435,1661548717073,-1.0641,-0.0968,0.1896,-35.12,-2.89,-3.01,
70436,1661548717073,-1.3028,-0.0216,0.2531,-38.34,-14.23,-0.83,
70437,1661548717073,-1.2418,-0.0211,0.4259,-29.07,15.45,6.74,
70438,1661548717077,-1.2267,0.0692,0.5671,-30.56,21.63,5.73,
70439,1661548717077,-1.212,0.1058,0.0754,-34.64,7.17,2.91,
70440,1661548717077,-1.19,0.1239,0.2189,-35.44,-3.15,2.27,
70441,1661548717077,-1.15,0.2245,0.5817,-37.95,-0.52,0.55,
70442,1661548717077,-1.0484,0.3109,-0.0033,-28.55,-1.55,0.27,
70443,1661548717077,-1.0592,0.2645,-0.3299,-29.74,13.01,4.56,
70444,1661548717077,-0.963,0.3539,0.0256,-31.25,19.01,3.83,
70445,1661548717077,-0.9317,0.2806,0.3024,-32.94,10.8,-0.46,
70446,1661548717077,-0.9054,0.3446,-0.138,-28.94,-0.69,-0.0,
70447,1661548717077,-0.9488,0.2924,-0.1615,-26.44,4.8,4.83,
70448,1661548717077,-0.9737,0.3168,0.256,-28.56,16.9,2.09,
70449,1661548717077,-0.86,0.247,-0.1419,-26.75,11.56,1.72,
70450,1661548717077,-0.9127,0.2015,-0.2879,-22.76,10.05,5.82,
70451,1661548717077,-0.8263,0.2123,0.0661,-17.96,13.51,5.2,
70452,1661548717077,-0.8761,0.0966,0.1012,-20.95,10.63,10.57,
70453,1661548717077,-0.6031,0.016,-0.304,-26.63,8.97,5.37,
70454,1661548717077,-0.8038,0.1561,-0.0037,-27.65,5.23,8.39,
70455,1661548717077,-0.608,0.1068,0.0329,-27.45,7.5,5.64,
70456,1661548717077,-0.7911,0.0204,-0.1722,-23.02,-4.32,7.75,
70457,1661548717085,-0.8487,0.0995,-0.0555,-20.05,-0.62,7.75,
70458,1661548717085,-0.8121,0.1586,0.2521,-17.96,2.68,6.56,
70459,1661548717085,-0.9176,0.2377,-0.1497,-19.04,0.82,6.92,
70460,1661548717085,-0.6739,0.2455,-0.0408,-20.05,6.33,7.47,
70461,1661548717085,-0.6861,0.3768,0.3844,-20.75,19.94,6.1,
70462,1661548717085,-0.6368,0.3768,0.069,-18.95,16.64,8.57,
70463,1661548717085,-0.7237,0.2367,-0.7074,-15.55,2.94,6.37,
70464,1661548717085,-0.7467,0.4237,-0.1068,-12.65,3.95,8.3,
70465,1661548717085,-0.8878,0.3817,0.0861,-11.84,4.65,4.65,
70466,1661548717085,-0.7579,0.3685,-0.7625,-12.85,2.34,0.91,
70467,1661548717085,-0.7315,0.2299,-0.8992,-16.25,-0.52,3.37,
70468,1661548717085,-0.8775,0.3456,0.0397,-20.16,13.09,-1.1,
70469,1661548717085,-0.8785,0.3524,0.0964,-16.16,-3.74,3.73,
70470,1661548717085,-0.7794,0.0682,-0.7493,-11.26,-13.46,4.37,
70471,1661548717085,-0.8185,0.2074,0.0622,-11.55,3.28,4.1,
70472,1661548717085,-0.9225,0.0624,0.3532,-13.66,12.16,-2.55,
70473,1661548717085,-0.8849,-0.1056,-0.4569,-17.45,5.4,0.18,
70474,1661548717085,-0.9728,-0.1388,-0.5345,-21.35,-7.47,-4.02,
70475,1661548717093,-1.0831,-0.0734,0.2809,-21.27,-6.11,6.28,
70476,1661548717093,-1.1124,-0.0812,0.1423,-16.95,-4.84,3.18,
70477,1661548717093,-1.1056,-0.2018,-0.4549,-17.87,-11.19,5.55,
70478,1661548717093,-1.2179,-0.1022,0.2604,-23.25,-10.67,-4.02,
70479,1661548717093,-1.253,0.0575,0.7306,-20.26,4.8,3.18,
70480,1661548717093,-1.1256,-0.2491,-0.388,-26.37,-3.07,-5.02,
70481,1661548717093,-1.1319,0.1054,0.0544,-30.35,-5.18,0.45,
70482,1661548717093,-1.1935,0.1386,0.8932,-28.96,-1.88,-4.02,
70483,1661548717093,-1.42,0.0248,0.4328,-19.04,-1.55,1.99,
70484,1661548717093,-1.256,-0.0177,-0.744,-22.15,-1.45,-2.64,
70485,1661548717093,-1.4684,0.0946,0.3542,-31.04,8.54,3.0,
70486,1661548717093,-1.3463,0.3275,0.6003,-32.44,4.13,-9.04,
70487,1661548717093,-1.1173,-0.0079,-0.7611,-31.16,-11.78,-1.38,
70488,1661548717093,-1.1021,0.1913,0.0724,-32.55,4.47,-4.48,
70489,1661548717093,-1.1778,0.307,0.8879,-35.86,12.25,-1.19,
70490,1661548717093,-1.1339,-0.0177,-0.2225,-30.84,3.95,-4.2,
70491,1661548717093,-1.2789,-0.0123,-0.5028,-30.06,-3.58,-2.55,
70492,1661548717103,-1.3473,0.163,0.6745,-38.36,16.47,-4.84,
70493,1661548717103,-1.2706,0.0614,0.7179,-34.83,13.01,-2.02,
70494,1661548717103,-1.0973,-0.0738,-0.5111,-32.87,2.77,-5.39,
70495,1661548717103,-1.1295,0.1029,0.3058,-30.36,-0.78,-2.02,
70496,1661548717103,-1.2423,0.1503,0.6803,-30.56,2.85,-2.29,
70497,1661548717103,-0.9176,-0.0343,-0.3426,-32.74,2.27,1.54,
70498,1661548717103,-1.0865,0.0404,0.0197,-34.16,5.9,-0.0,
70499,1661548717103,-1.1021,0.1644,0.5002,-34.45,8.27,3.46,
70500,1661548717103,-1.1007,0.0043,0.2673,-31.74,-1.29,1.19,
70501,1661548717103,-1.0055,-0.0094,-0.1409,-26.85,8.52,2.82,
70502,1661548717103,-1.0768,0.2157,0.1086,-28.94,1.51,3.18,
70503,1661548717103,-0.9913,0.328,0.3674,-30.17,14.28,-1.01,
70504,1661548717103,-0.7999,0.1439,-0.1219,-28.44,8.95,1.0,
70505,1661548717103,-0.963,0.1464,-0.2938,-29.95,12.32,3.28,
70506,1661548717103,-0.8355,0.39,0.0973,-29.54,15.28,2.73,
70507,1661548717103,-0.9137,0.3554,0.195,-26.15,18.93,2.64,
70508,1661548717103,-0.6227,0.3192,-0.5028,-20.95,6.66,8.75,
70509,1661548717103,-0.7384,0.3251,-0.2987,-21.67,4.13,7.2,
70510,1661548717103,-0.8346,0.5175,0.5607,-22.95,20.53,5.37,
70511,1661548717111,-0.8033,0.3817,0.07,-22.75,1.84,8.48,
70512,1661548717111,-0.7359,0.2294,-0.7449,-23.65,3.2,6.83,
70513,1661548717111,-0.8692,0.4652,0.298,-20.84,3.95,5.46,
70514,1661548717111,-0.8756,0.3456,0.2546,-19.15,4.3,3.55,
70515,1661548717111,-0.6305,0.2758,-0.2699,-14.45,-3.58,5.82,
70516,1661548717111,-0.5772,0.225,-0.5999,-11.85,9.87,8.02,
70517,1661548717111,-0.6456,0.2113,0.1447,-17.26,20.03,8.3,
70518,1661548717111,-0.7926,0.0346,-0.2581,-20.66,8.19,2.91,
70519,1661548717111,-0.7423,-0.0104,-0.7064,-18.46,-9.57,7.93,
70520,1661548717111,-0.899,0.1698,-0.035,-13.85,-9.83,4.19,
70521,1661548717111,-0.8224,0.0316,0.1227,-12.95,-0.62,6.01,
70522,1661548717111,-0.6905,-0.0641,-0.1737,-13.37,1.58,4.01,
70523,1661548717111,-0.7672,0.0516,-0.3328,-18.84,-4.0,1.09,
70524,1661548717111,-0.7354,0.0521,0.1686,-17.06,-6.61,-0.46,
70525,1661548717111,-0.9054,0.0311,0.2926,-16.75,4.13,6.56,
70526,1661548717111,-0.8014,0.0844,-0.3094,-16.25,5.47,3.46,
70527,1661548717111,-1.0001,0.0892,-0.0682,-19.93,11.67,3.28,
70528,1661548717111,-0.8878,0.2172,0.238,-16.77,13.18,1.0,
70529,1661548717119,-0.9581,0.0931,-0.1385,-19.33,-7.7,3.64,
70530,1661548717119,-0.8722,0.0424,-0.7503,-19.74,-16.94,1.35,
70531,1661548717119,-1.1402,0.1674,0.0915,-24.55,-2.55,6.74,
70532,1661548717119,-1.2276,0.1342,0.4059,-22.44,8.95,2.36,
70533,1661548717119,-1.0704,0.0258,-0.5399,-23.77,-11.43,2.36,
70534,1661548717119,-1.1358,0.143,0.215,-25.45,-8.23,3.83,
70535,1661548717119,-1.214,0.1703,0.6896,-22.26,6.24,2.64,
70536,1661548717119,-1.1808,-0.1017,0.1672,-23.36,4.13,1.54,
70537,1661548717119,-1.2149,-0.0709,-0.158,-27.85,0.48,-4.02,
70538,1661548717119,-1.3521,-0.0123,0.405,-33.45,-2.55,0.36,
70539,1661548717119,-1.1368,-0.132,0.0773,-28.35,-6.61,0.45,
70540,1661548717119,-1.234,-0.1246,-0.1014,-29.25,3.02,0.91,
70541,1661548717119,-1.2862,-0.0187,0.2184,-32.84,7.0,-1.74,
70542,1661548717119,-1.2218,-0.1007,0.2453,-33.45,-9.4,-0.0,
70543,1661548717119,-1.3224,-0.1012,0.2829,-32.74,-14.99,1.63,
70544,1661548717119,-1.0475,-0.0699,0.2858,-30.44,-0.52,0.55,
70545,1661548717119,-1.2569,0.0365,0.2243,-35.05,5.99,0.36,
70546,1661548717119,-1.0855,-0.0021,0.4884,-39.95,13.59,1.45,
70547,1661548717119,-1.2828,0.0805,0.3825,-36.25,-0.95,3.18,
70548,1661548717127,-1.2047,0.0941,0.0104,-30.75,-6.28,1.19,
70549,1661548717127,-1.2384,0.1547,0.1315,-31.74,8.77,3.37,
70550,1661548717127,-1.1173,0.2953,0.5343,-35.54,26.79,1.81,
70551,1661548717127,-1.0064,0.2699,-0.0711,-39.84,20.79,-0.37,
70552,1661548717127,-0.9103,0.3041,-0.1663,-38.86,11.73,1.81,
70553,1661548717127,-1.0104,0.3046,0.3097,-31.97,-0.62,1.28,
70554,1661548717127,-1.0245,0.3422,0.0138,-30.55,2.1,2.45,
70555,1661548717127,-0.9728,0.3641,-0.119,-30.56,8.19,-3.65,
70556,1661548717127,-0.9952,0.285,0.0475,-33.64,17.91,-4.93,
70557,1661548717127,-0.9889,0.329,0.1628,-32.15,13.42,-3.28,
70558,1661548717127,-0.8932,0.2284,-0.1986,-26.17,7.67,-1.19,
70559,1661548717127,-0.797,0.2245,0.0075,-22.55,17.07,-2.02,
70560,1661548717127,-0.8199,0.1444,0.1427,-28.65,10.8,3.18,
70561,1661548717127,-0.7096,0.0302,-0.1908,-28.65,6.16,-0.92,
70562,1661548717127,-0.672,0.0643,-0.2816,-27.56,1.41,1.81,
70563,1661548717127,-0.8341,0.1732,-0.0174,-26.15,9.12,4.47,
70564,1661548717127,-0.5904,0.1019,-0.075,-31.05,5.56,1.45,
70565,1661548717127,-0.7374,0.0526,-0.138,-27.04,3.63,-0.55,
70566,1661548717135,-0.67,0.202,0.2077,-21.74,8.1,-0.83,
70567,1661548717135,-0.8717,0.2601,-0.1243,-20.77,2.1,2.09,
70568,1661548717135,-0.8512,0.2562,-0.1971,-18.36,3.44,-1.29,
70569,1661548717135,-0.775,0.2601,0.0768,-22.25,8.86,0.55,
70570,1661548717135,-0.6314,0.3495,0.1808,-22.23,16.49,0.36,
70571,1661548717135,-0.5973,0.2748,-0.5482,-19.85,8.95,1.28,
70572,1661548717135,-0.6134,0.3192,-0.4974,-15.67,12.08,-0.83,
70573,1661548717141,-0.753,0.4056,-0.0413,-13.85,8.27,-0.28,
70574,1661548717141,-0.8063,0.3475,-0.0897,-16.55,7.26,-1.56,
70575,1661548717141,-0.7667,0.3163,-0.7303,-19.13,-10.84,-1.19,
70576,1661548717141,-0.7843,0.2406,-0.3934,-21.15,-3.32,-6.84,
70577,1661548717141,-0.7945,0.4203,0.2717,-14.16,6.07,-4.93,
70578,1661548717141,-0.7604,0.1224,-0.5286,-11.28,-2.72,-2.64,
70579,1661548717141,-0.8014,0.1161,-0.2513,-16.97,-4.58,-1.74,
70580,1661548717141,-0.9723,0.1151,0.402,-16.97,-6.28,1.35,
70581,1661548717141,-0.9215,-0.0592,-0.2562,-15.75,-6.44,2.82,
70582,1661548717141,-1.0499,-0.1183,-0.3245,-16.65,4.63,1.28,
70583,1661548717141,-1.0665,-0.0655,0.1437,-25.86,5.06,0.55,
70584,1661548717141,-1.0094,-0.047,0.2809,-26.24,-10.93,-1.19,
70585,1661548717141,-1.1515,-0.1373,-0.5052,-15.85,-18.64,6.83,
70586,1661548717141,-1.0909,-0.1876,0.0524,-21.94,-4.51,11.3,
70587,1661548717141,-1.2354,0.0863,0.797,-29.95,-3.24,1.28,
70588,1661548717141,-0.9967,-0.2438,-0.2157,-29.65,-17.28,12.13,
70589,1661548717141,-1.1119,-0.026,-0.2469,-27.27,-4.75,-0.74,
70590,1661548717141,-1.1788,0.1224,0.9606,-27.94,14.78,3.37,
70591,1661548717141,-1.3424,-0.0118,0.1042,-30.84,-2.72,-1.19,
70592,1661548717149,-1.2735,-0.0118,-0.5443,-23.85,-13.89,0.36,
70593,1661548717149,-1.4801,0.1791,0.7082,-29.86,14.11,-6.93,
70594,1661548717149,-1.1969,0.2982,0.8488,-35.96,13.76,-6.57,
70595,1661548717149,-1.1109,0.0765,-0.4285,-36.04,-7.21,-10.32,
70596,1661548717149,-1.11,0.0341,-0.2454,-33.25,-1.62,-3.74,
70597,1661548717149,-1.2491,0.3383,0.8464,-31.26,7.59,-5.12,
70598,1661548717149,-1.2613,0.0214,-0.0003,-34.83,0.91,-4.11,
70599,1661548717149,-1.256,0.0253,-0.2674,-37.83,-7.53,-6.03,
70600,1661548717149,-1.4054,0.0975,0.8224,-35.14,7.26,-4.11,
70601,1661548717149,-1.3136,-0.0138,0.3786,-31.34,17.15,-4.93,
70602,1661548717149,-1.1285,-0.0914,-0.2987,-32.26,11.91,-4.75,
70603,1661548717149,-1.1358,-0.0074,-0.0335,-37.44,-0.19,-3.19,
70604,1661548717149,-1.3248,0.077,0.8498,-35.34,-6.96,2.27,
70605,1661548717149,-1.0631,-0.0109,-0.0296,-29.25,-2.72,1.35,
70606,1661548717149,-1.1515,-0.0475,-0.264,-34.06,10.29,4.65,
70607,1661548717149,-1.0421,0.1639,0.5925,-41.55,21.97,2.18,
70608,1661548717149,-1.1485,0.0121,0.0763,-37.46,-0.69,3.73,
70609,1661548717149,-1.0064,0.0585,-0.2445,-27.65,0.48,2.64,
70610,1661548717149,-0.8224,0.1972,-0.0125,-27.34,0.41,6.83,
70611,1661548717157,-1.0289,0.3378,0.4465,-34.64,16.31,4.19,
70612,1661548717157,-0.7525,0.2001,-0.0506,-34.44,9.2,8.3,
70613,1661548717157,-0.859,0.2128,-0.2865,-33.64,14.52,4.92,
70614,1661548717157,-0.8404,0.3964,0.3141,-28.35,13.01,9.38,
70615,1661548717157,-0.8419,0.3319,0.0148,-25.15,11.99,6.74,
70616,1661548717157,-0.6168,0.3539,-0.4085,-24.43,4.82,8.02,
70617,1661548717157,-0.6485,0.2968,-0.5448,-25.76,3.87,8.02,
70618,1661548717157,-0.7589,0.493,0.5173,-25.65,20.96,3.0,
70619,1661548717157,-0.6959,0.3007,-0.3284,-24.17,2.01,6.19,
70620,1661548717157,-0.6954,0.3236,-0.7034,-26.17,3.61,3.09,
70621,1661548717157,-0.8277,0.4882,0.467,-23.86,6.66,3.0,
70622,1661548717157,-0.8531,0.4169,0.4333,-20.84,3.53,4.28,
70623,1661548717157,-0.5587,0.2694,-0.5853,-15.47,-3.41,-0.19,
70624,1661548717157,-0.5895,0.2723,-0.4432,-16.14,11.48,5.11,
70625,1661548717157,-0.6266,0.1596,0.1999,-17.56,15.88,6.47,
70626,1661548717157,-0.7691,0.0346,-0.3743,-21.65,5.31,6.01,
70627,1661548717157,-0.7223,0.0018,-0.5482,-20.55,-6.87,7.38,
70628,1661548717165,-0.8399,0.1078,-0.2689,-18.37,-10.17,8.57,
70629,1661548717165,-0.9215,0.1322,0.2292,-15.36,0.82,7.38,
70630,1661548717165,-0.7105,-0.0182,-0.2117,-16.07,3.11,6.37,
70631,1661548717165,-0.7916,0.1298,-0.3509,-22.15,-1.97,4.74,
70632,1661548717165,-0.7418,0.0258,0.2043,-23.67,-4.34,2.91,
70633,1661548717165,-0.8712,0.1044,0.2565,-20.35,4.47,3.28,
70634,1661548717165,-0.9933,0.1566,-0.1639,-20.14,-3.73,-2.48,
70635,1661548717165,-0.9684,0.1605,-0.3949,-18.86,6.83,-1.65,
70636,1661548717165,-0.9117,0.2416,0.3342,-20.35,13.85,-3.19,
70637,1661548717165,-0.9444,0.1078,-0.2713,-21.45,-2.39,-3.83,
70638,1661548717165,-0.8756,0.0975,-0.7127,-17.96,-11.27,-2.74,
70639,1661548717165,-1.1358,0.2142,0.36,-24.05,4.13,3.83,
70640,1661548717165,-1.1979,0.1205,0.362,-26.24,4.21,0.73,
70641,1661548717171,-1.0001,0.0087,-0.616,-27.34,-13.55,-2.55,
70642,1661548717171,-1.0484,0.1117,-0.3499,-24.75,-4.67,-1.01,
70643,1661548717171,-1.2062,0.1171,0.6515,-19.76,8.52,-3.19,
70644,1661548717171,-1.1944,-0.1344,-0.0506,-25.94,-1.88,-0.0,
70645,1661548717171,-1.2154,-0.0358,-0.119,-32.26,-5.68,3.64,
70646,1661548717171,-1.3287,0.0165,0.4269,-28.84,1.84,3.64,
70647,1661548717171,-1.047,-0.129,-0.0589,-27.54,0.57,4.19,
70648,1661548717171,-1.1793,-0.0953,-0.0506,-30.56,4.97,5.82,
70649,1661548717171,-1.2525,-0.0177,0.3439,-33.54,-2.81,3.55,
70650,1661548717171,-1.3204,-0.1129,0.2487,-34.64,-19.05,3.28,
70651,1661548717171,-1.3556,-0.0924,0.2482,-34.44,-2.05,2.91,
70652,1661548717171,-1.1539,-0.0167,0.5041,-35.14,9.12,-1.38,
70653,1661548717171,-1.2018,0.0238,0.173,-40.14,0.99,-3.74,
70654,1661548717179,-1.0973,0.0599,0.3708,-39.72,3.79,-3.01,
70655,1661548717179,-1.1783,0.1312,0.4206,-33.34,5.73,0.18,
70656,1661548717179,-1.1617,0.1342,0.0553,-31.97,5.81,5.02,
70657,1661548717179,-1.3268,0.1957,0.0964,-31.95,20.79,4.47,
70658,1661548717179,-1.1544,0.348,0.4128,-37.55,23.33,-0.37,
70659,1661548717179,-1.006,0.247,-0.1859,-39.82,3.21,0.55,
70660,1661548717179,-0.9181,0.3163,-0.0521,-35.25,0.57,0.91,
70661,1661548717179,-0.9698,0.3329,0.3215,-32.04,5.14,-1.29,
70662,1661548717179,-1.0187,0.3436,0.1003,-27.45,11.48,-3.28,
70663,1661548717179,-1.0196,0.327,-0.1287,-31.04,10.07,-1.38,
70664,1661548717179,-1.0108,0.264,0.1374,-34.24,10.05,-2.55,
70665,1661548717179,-0.9508,0.3104,0.0509,-30.17,11.73,-0.1,
70666,1661548717179,-0.9186,0.1932,-0.2581,-22.95,11.73,1.99,
70667,1661548717179,-0.8214,0.1923,0.0856,-29.14,11.48,1.28,
70668,1661548717179,-0.8497,0.1102,0.1149,-30.55,-1.55,5.64,
70669,1661548717179,-0.9488,0.0385,-0.0921,-25.95,-3.41,4.28,
70670,1661548717179,-0.7872,0.0487,-0.2503,-24.64,0.99,7.2,
70671,1661548717179,-0.8639,0.1322,0.0949,-28.82,14.7,7.56,
70672,1661548717179,-0.7452,0.0678,-0.0516,-31.14,6.4,7.11,
70673,1661548717179,-0.8521,0.1293,-0.0374,-26.76,1.58,7.47,
70674,1661548717179,-0.7188,0.1469,0.1633,-22.37,2.34,9.47,
70675,1661548717187,-0.8609,0.2006,0.0212,-17.13,2.36,10.11,
70676,1661548717187,-0.8243,0.2626,-0.2142,-18.77,8.02,10.84,
70677,1661548717187,-0.8775,0.3065,0.0134,-26.95,8.19,10.75,
70678,1661548717187,-0.65,0.3514,0.0475,-25.65,14.35,10.39,
70679,1661548717187,-0.6505,0.2958,-0.5433,-17.65,6.16,10.66,
70680,1661548717187,-0.6622,0.369,-0.4388,-14.75,9.7,8.39,
70681,1661548717187,-0.7457,0.3744,-0.2318,-16.75,3.37,10.39,
70682,1661548717187,-0.8424,0.3158,-0.0799,-21.76,2.18,8.94,
70683,1661548717187,-0.7994,0.33,-0.5887,-20.25,-11.95,7.56,
70684,1661548717187,-0.794,0.2626,-0.3426,-20.75,3.7,4.19,
70685,1661548717187,-0.7745,0.3495,0.1486,-19.45,12.16,0.55,
70686,1661548717187,-0.774,0.1307,-0.5081,-18.16,3.7,-0.1,
70687,1661548717187,-0.794,0.0927,-0.2298,-14.77,-3.65,0.91,
70688,1661548717187,-0.9483,0.0814,0.1276,-19.47,-7.13,1.72,
70689,1661548717187,-0.9137,-0.025,-0.015,-16.75,-2.05,4.65,
70690,1661548717187,-0.9337,-0.0958,-0.4696,-23.65,3.02,0.55,
70691,1661548717187,-1.0445,-0.026,0.1784,-28.26,0.91,2.91,
70692,1661548717187,-1.0714,-0.0616,0.1711,-27.54,-11.19,-0.46,
70693,1661548717195,-1.1583,-0.2081,-0.3709,-16.11,-15.65,5.28,
70694,1661548717195,-1.1979,-0.107,0.3176,-23.67,-0.62,3.18,
70695,1661548717195,-1.2066,0.0883,0.7048,-31.25,-1.88,5.11,
70696,1661548717195,-1.1368,-0.1095,0.2223,-29.95,-13.3,0.55,
70697,1661548717195,-1.1783,-0.1735,-0.491,-27.94,-2.48,8.2,
70698,1661548717195,-1.2252,0.1259,0.5275,-28.65,18.75,-2.02,
70699,1661548717195,-1.4327,0.098,0.4054,-33.25,-0.52,-0.92,
70700,1661548717195,-1.2135,0.0765,-0.5828,-27.65,-13.05,-8.4,
70701,1661548717195,-1.3985,0.1117,0.1989,-29.23,5.66,-4.84,
70702,1661548717195,-1.1856,0.2865,0.5348,-32.06,18.5,-6.75,
70703,1661548717195,-1.0719,0.0746,-0.4403,-37.44,2.6,-0.65,
70704,1661548717195,-1.1466,0.1132,-0.0164,-40.05,-8.9,-3.56,
70705,1661548717195,-1.3614,0.2875,0.5724,-33.95,-0.78,-0.92,
70706,1661548717195,-1.2994,0.1488,0.5588,-28.46,6.33,-1.93,
70707,1661548717195,-1.2467,0.0311,-0.2454,-31.65,-1.97,-2.11,
70708,1661548717195,-1.3136,0.1303,0.3254,-43.35,5.23,-2.29,
70709,1661548717195,-1.2916,0.1039,0.7673,-41.66,7.26,-1.93,
70710,1661548717203,-1.1354,-0.0514,-0.2518,-32.64,-0.86,3.0,
70711,1661548717203,-1.1095,0.0287,0.1042,-29.75,10.05,2.54,
70712,1661548717204,-1.3346,0.101,0.6261,-36.76,12.75,2.64,
70713,1661548717204,-1.2477,0.1088,0.3888,-36.54,-6.7,1.0,
70714,1661548717204,-1.0987,-0.0861,-0.4461,-39.44,-15.25,2.73,
70715,1661548717204,-1.1148,0.1522,0.4294,-35.06,12.49,-3.38,
70716,1661548717207,-0.9845,0.1659,0.506,-33.93,19.28,-3.93,
70717,1661548717207,-0.9122,0.0443,-0.2874,-33.64,12.08,2.27,
70718,1661548717207,-0.9527,0.2548,0.1325,-31.84,7.09,-2.83,
70719,1661548717207,-1.2159,0.3129,0.4601,-26.17,9.79,-3.01,
70720,1661548717207,-0.982,0.2479,0.1506,-29.97,9.79,-1.56,
70721,1661548717207,-0.9425,0.2162,-0.4627,-32.64,12.16,0.91,
70722,1661548717207,-0.8097,0.3993,0.2463,-34.83,20.27,1.72,
70723,1661548717207,-0.8463,0.37,0.153,-29.14,14.87,0.36,
70724,1661548717207,-0.6622,0.3471,-0.6082,-23.94,7.26,0.45,
70725,1661548717207,-0.6656,0.2333,-0.6297,-21.96,-3.41,0.64,
70726,1661548717207,-0.8429,0.4144,0.319,-28.64,13.59,1.9,
70727,1661548717207,-0.8526,0.3978,0.0632,-31.84,9.12,1.0,
70728,1661548717207,-0.7647,0.1757,-0.9188,-24.35,7.59,2.18,
70729,1661548717207,-0.8561,0.4638,0.1388,-21.56,17.07,-0.55,
70730,1661548717207,-0.8531,0.2958,0.2111,-21.15,10.63,2.09,
70731,1661548717207,-0.6827,0.2191,-0.2977,-20.64,-4.93,0.55,
70732,1661548717207,-0.6114,0.1884,-0.6893,-18.25,-3.82,5.55,
70733,1661548717207,-0.7169,0.1532,0.0588,-17.35,12.49,8.11,
70734,1661548717207,-0.7594,0.0805,-0.1336,-19.35,9.53,3.55,
70735,1661548717207,-0.8053,-0.0367,-0.702,-21.56,0.65,5.55,
70736,1661548717215,-0.902,0.1019,-0.1326,-19.94,-8.82,5.02,
70737,1661548717215,-0.9024,0.098,0.2717,-16.07,-7.71,7.56,
70738,1661548717215,-0.6964,-0.005,-0.0184,-16.75,-7.38,7.84,
70739,1661548717215,-0.7428,0.0482,-0.5116,-19.74,4.21,6.65,
70740,1661548717215,-0.8082,0.0805,0.1154,-24.23,12.1,7.66,
70741,1661548717215,-1.0348,0.0199,0.3322,-23.45,7.33,8.11,
70742,1661548717215,-0.9288,0.1107,-0.4574,-22.44,-7.63,8.11,
70743,1661548717215,-1.0108,0.161,-0.2386,-18.84,-7.97,8.94,
70744,1661548717215,-0.8473,0.1879,0.2233,-17.94,14.11,5.37,
70745,1661548717215,-0.9532,0.1097,-0.1058,-21.15,11.56,10.75,
70746,1661548717215,-0.961,-0.0279,-0.7962,-27.07,-4.25,-0.19,
70747,1661548717215,-1.2208,0.1845,0.029,-27.27,-16.85,4.56,
70748,1661548717215,-1.3106,0.1386,0.4582,-22.26,-2.81,-2.11,
70749,1661548717215,-1.1222,0.0629,-0.411,-22.75,-9.07,5.82,
70750,1661548717215,-1.1041,0.119,0.0461,-27.46,-2.72,-1.84,
70751,1661548717215,-1.2276,0.0482,0.5983,-27.65,1.41,4.37,
70752,1661548717215,-1.2369,-0.132,0.1247,-26.64,-7.13,-4.29,
70753,1661548717223,-1.2184,-0.1139,-0.1942,-26.26,-1.12,-1.1,
70754,1661548717223,-1.4098,0.0106,0.5383,-33.54,-0.69,-10.85,
70755,1661548717223,-1.2442,-0.11,0.1471,-31.45,-10.67,-3.93,
70756,1661548717223,-1.2408,-0.1403,-0.2034,-28.36,-5.27,-4.84,
70757,1661548717223,-1.3858,0.0472,0.3288,-35.46,4.37,0.27,
70758,1661548717223,-1.3731,-0.1271,0.174,-36.54,-7.63,-2.2,
70759,1661548717223,-1.3604,-0.0646,0.3595,-36.65,-6.54,0.55,
70760,1661548717223,-1.276,0.0336,0.527,-33.74,4.04,-2.29,
70761,1661548717223,-1.3121,0.0389,0.2634,-35.55,6.74,0.55,
70762,1661548717223,-1.1466,0.0599,0.2511,-41.64,11.23,-0.1,
70763,1661548717223,-1.3878,0.0844,0.4855,-38.15,3.02,0.27,
70764,1661548717223,-1.3658,0.1581,0.1227,-35.75,-7.04,-2.74,
70765,1661548717223,-1.3839,0.2333,0.2233,-34.04,8.27,-5.02,
70766,1661548717223,-1.212,0.3324,0.236,-34.93,25.54,-1.19,
70767,1661548717223,-1.088,0.264,-0.0194,-41.73,16.55,-1.93,
70768,1661548717223,-1.0367,0.2621,-0.0965,-40.63,7.93,1.28,
70769,1661548717223,-1.0704,0.307,0.1784,-37.14,-1.04,-4.29,
70770,1661548717231,-1.0211,0.3749,-0.0208,-29.56,5.99,-3.19,
70771,1661548717231,-1.0348,0.2723,-0.034,-29.56,12.92,-1.1,
70772,1661548717231,-1.0284,0.2128,0.2165,-39.03,11.24,2.09,
70773,1661548717231,-0.9742,0.268,0.0177,-35.66,9.36,2.36,
70774,1661548717231,-0.8956,0.2333,-0.221,-29.65,5.73,-1.93,
70775,1661548717231,-0.8126,0.1547,-0.0316,-26.15,15.45,-0.46,
70776,1661548717231,-0.8712,0.1444,0.2077,-28.96,4.63,2.36,
70777,1661548717231,-0.8673,0.0707,-0.0936,-30.56,-0.45,3.18,
70778,1661548717231,-0.8966,0.0907,-0.1951,-28.06,-3.91,3.83,
70779,1661548717231,-0.7848,0.0927,0.0383,-29.25,13.42,6.74,
70780,1661548717231,-0.5729,0.1156,-0.0228,-30.06,14.19,0.73,
70781,1661548717231,-0.7174,0.1278,-0.16,-28.04,10.89,5.37,
70782,1661548717231,-0.6603,0.1176,0.0812,-24.34,3.89,6.65,
70783,1661548717231,-0.8702,0.2865,-0.0233,-23.34,-0.36,4.19,
70784,1661548717231,-0.7618,0.2953,-0.2298,-20.64,5.14,2.91,
70785,1661548717231,-0.8644,0.3485,-0.0242,-25.85,12.32,7.38,
70786,1661548717231,-0.6397,0.3583,-0.0511,-28.15,18.41,3.46,
70787,1661548717231,-0.5421,0.2909,-0.325,-24.84,7.93,4.28,
70788,1661548717239,-0.5792,0.2753,-0.6844,-17.76,6.4,-0.0,
70789,1661548717239,-0.7052,0.3915,-0.1439,-13.15,4.37,-1.47,
70790,1661548717239,-0.7818,0.3763,-0.1058,-20.16,2.18,1.9,
70791,1661548717239,-0.7472,0.2543,-0.7264,-23.16,-11.19,1.28,
70792,1661548717239,-0.8233,0.2772,-0.1917,-21.16,2.44,6.19,
70793,1661548717239,-0.8121,0.3456,0.0973,-17.65,11.56,1.81,
70794,1661548717239,-0.7281,0.1503,-0.2659,-17.26,-0.78,-0.1,
70795,1661548717239,-0.8136,-0.0348,-0.4027,-17.67,-5.77,3.0,
70796,1661548717239,-1.0294,0.0824,0.3371,-17.27,-8.47,5.46,
70797,1661548717239,-0.8741,-0.048,-0.1317,-19.15,-2.39,-0.55,
70798,1661548717239,-0.9322,-0.131,-0.494,-22.44,5.4,1.81,
70799,1661548717239,-1.0255,-0.0289,0.2746,-26.44,4.37,-0.92,
70800,1661548717239,-1.0563,-0.1549,-0.0594,-28.15,-20.91,4.47,
70801,1661548717239,-1.1354,-0.2042,-0.3968,-18.55,-14.06,10.39,
70802,1661548717239,-1.2682,-0.0455,0.5441,-27.94,1.08,-1.38,
70803,1661548717239,-1.1656,0.0258,0.403,-30.96,-4.84,-0.28,
70804,1661548717239,-0.9952,-0.2013,-0.1785,-31.54,-14.75,3.28,
70805,1661548717239,-1.151,-0.0856,-0.2513,-28.44,8.02,-1.29,
70806,1661548717247,-1.2354,0.1503,0.7389,-30.03,14.89,-0.83,
70807,1661548717248,-1.3995,0.0424,0.0998,-29.45,-4.93,-1.38,
70808,1661548717248,-1.2848,0.0814,-0.4198,-26.46,-11.78,0.36,
70809,1661548717248,-1.4542,0.1464,0.3903,-31.74,9.87,-9.77,
70810,1661548717248,-1.2511,0.2162,0.132,-34.65,13.01,-0.92,
70811,1661548717248,-1.1651,0.0834,-0.41,-35.44,-1.38,-8.95,
70812,1661548717248,-1.2828,0.2035,0.319,-34.56,-5.61,-2.64,
70813,1661548717248,-1.3702,0.2518,0.6227,-31.84,-1.12,-9.59,
70814,1661548717248,-1.3741,0.0995,0.298,-33.45,0.99,-7.66,
70815,1661548717248,-1.2574,0.0355,-0.0999,-35.44,-4.41,-7.94,
70816,1661548717248,-1.3038,0.1102,0.4294,-39.06,5.99,-3.01,
70817,1661548717248,-1.274,0.0604,0.5163,-39.52,18.18,-2.55,
70818,1661548717248,-1.1798,-0.0133,-0.2147,-34.16,11.23,-0.65,
70819,1661548717248,-1.1905,0.0848,0.259,-32.44,4.8,-2.83,
70820,1661548717248,-1.3746,0.1102,0.7131,-37.64,-0.28,-0.55,
70821,1661548717248,-1.2081,0.0839,0.1237,-33.14,-5.1,1.45,
70822,1661548717248,-1.1197,-0.0494,-0.4774,-36.74,-4.58,1.54,
70823,1661548717248,-1.0929,0.2001,0.5983,-38.44,19.01,1.63,
70824,1661548717248,-1.1217,0.1669,0.3913,-35.84,13.51,3.0,
70825,1661548717248,-0.9425,0.0468,-0.4354,-31.54,-0.62,2.91,
70826,1661548717256,-1.1178,0.2792,0.3547,-28.55,3.95,3.0,
70827,1661548717256,-1.1422,0.351,0.6974,-29.07,17.07,-0.19,
70828,1661548717256,-0.9024,0.2157,-0.0658,-32.96,14.11,1.35,
70829,1661548717256,-0.9332,0.2382,-0.4329,-32.64,15.28,1.35,
70830,1661548717256,-0.9405,0.4017,0.4596,-32.96,16.31,3.92,
70831,1661548717256,-0.8604,0.327,-0.077,-27.85,6.4,-2.38,
70832,1661548717256,-0.6363,0.3383,-0.7542,-25.25,2.18,0.27,
70833,1661548717256,-0.6993,0.3158,-0.45,-26.55,2.77,0.82,
70834,1661548717256,-0.86,0.4506,0.4621,-30.76,9.2,-3.1,
70835,1661548717256,-0.7906,0.267,-0.346,-29.34,-2.9,0.73,
70836,1661548717256,-0.776,0.3021,-0.6107,-25.54,8.43,-3.01,
70837,1661548717256,-0.8897,0.4491,0.4118,-19.55,13.09,-0.74,
70838,1661548717256,-0.8106,0.205,-0.0555,-20.25,2.34,-0.83,
70839,1661548717256,-0.5909,0.2421,-0.5648,-18.45,-2.22,3.64,
70840,1661548717256,-0.6202,0.2167,-0.4095,-17.56,7.26,5.02,
70841,1661548717256,-0.6139,0.1195,0.0319,-16.95,9.79,1.45,
70842,1661548717256,-0.7809,0.0502,-0.1766,-20.77,7.5,2.73,
70843,1661548717264,-0.8058,-0.0778,-0.5814,-21.16,-6.2,0.82,
70844,1661548717264,-0.8897,0.1195,-0.138,-20.06,-13.13,1.54,
70845,1661548717264,-0.8512,0.0575,0.3058,-15.47,3.78,6.28,
70846,1661548717264,-0.6334,-0.0216,-0.1077,-17.36,0.57,4.01,
70847,1661548717264,-0.7125,0.077,-0.5911,-23.16,2.44,-0.0,
70848,1661548717264,-0.7691,0.0541,0.28,-24.37,1.67,1.54,
70849,1661548717264,-0.9718,0.0941,0.2917,-19.85,1.08,-0.0,
70850,1661548717264,-0.8351,0.1127,-0.6419,-16.63,-6.18,1.19,
70851,1661548717264,-1.0099,0.1493,0.0212,-19.47,5.73,0.55,
70852,1661548717264,-0.8321,0.2553,0.3776,-20.35,17.74,-0.28,
70853,1661548717264,-0.899,0.0814,-0.3958,-20.35,-2.22,0.82,
70854,1661548717264,-0.922,0.0243,-0.7581,-23.56,-11.86,-3.93,
70855,1661548717264,-1.1759,0.2167,0.2917,-25.34,-8.64,-0.92,
70856,1661548717264,-1.2799,0.0429,0.32,-26.24,-1.55,-3.28,
70857,1661548717264,-1.109,0.0433,-0.4559,-27.34,-14.91,-0.0,
70858,1661548717264,-1.1163,0.1166,0.237,-25.54,-2.64,-1.38,
70859,1661548717264,-1.19,-0.0528,0.4186,-21.85,4.97,1.19,
70860,1661548717272,-1.1852,-0.1681,-0.0286,-23.34,0.24,-2.2,
70861,1661548717272,-1.1964,-0.0992,-0.0975,-31.65,-2.05,-0.28,
70862,1661548717272,-1.3883,0.0194,0.4845,-34.65,-6.2,-3.28,
70863,1661548717272,-1.0816,-0.1324,-0.0272,-29.05,-4.84,0.64,
70864,1661548717272,-1.1881,-0.1363,-0.1688,-29.86,4.04,-0.1,
70865,1661548717272,-1.274,-0.0289,0.2741,-36.86,-7.3,1.45,
70866,1661548717272,-1.399,-0.1066,0.1491,-34.35,-22.27,-1.38,
70867,1661548717272,-1.3492,-0.0314,0.4416,-31.97,-0.52,-1.74,
70868,1661548717272,-1.42,-0.0411,0.4015,-38.05,2.18,-2.29,
70869,1661548717272,-1.2096,0.0736,0.2555,-43.44,5.4,-6.75,
70870,1661548717272,-1.1354,0.1039,0.3581,-40.25,4.37,-8.12,
70871,1661548717272,-1.1886,0.0707,0.3683,-34.54,13.18,-7.85,
70872,1661548717272,-1.3224,0.2045,0.2165,-33.54,14.61,-5.02,
70873,1661548717272,-1.3795,0.2084,0.298,-36.04,17.15,-2.92,
70874,1661548717272,-1.2862,0.2728,0.069,-40.14,5.14,-7.66,
70875,1661548717272,-1.1637,0.2758,-0.0384,-40.54,2.1,-4.57,
70876,1661548717272,-1.0826,0.2977,0.1032,-36.04,6.33,-5.02,
70877,1661548717280,-0.9693,0.3192,0.0202,-33.34,11.82,-4.66,
70878,1661548717280,-1.0318,0.3842,-0.0096,-29.54,10.39,-5.48,
70879,1661548717280,-1.027,0.2929,0.0964,-28.33,1.86,1.45,
70880,1661548717280,-1.0211,0.2338,0.0944,-31.14,12.32,-2.11,
70881,1661548717280,-0.9649,0.2035,0.0094,-30.04,16.31,0.18,
70882,1661548717284,-0.9703,0.1503,-0.0902,-32.36,11.23,-0.0,
70883,1661548717284,-0.8756,0.1869,0.0959,-27.34,4.47,1.81,
70884,1661548717284,-0.8668,0.1268,0.1379,-28.35,0.74,1.54,
70885,1661548717284,-0.7901,0.0248,-0.1014,-21.36,0.82,6.56,
70886,1661548717284,-0.8888,0.0717,-0.0941,-27.36,3.53,8.94,
70887,1661548717286,-0.7516,0.12,0.1608,-33.23,9.55,11.12,
70888,1661548717286,-0.7608,0.1224,-0.0887,-34.16,3.61,8.57,
70889,1661548717286,-0.7208,0.1127,-0.2103,-27.07,3.87,12.58,
70890,1661548717286,-0.6139,0.1244,0.1047,-20.46,12.42,11.03,
70891,1661548717286,-0.8775,0.3402,0.0304,-21.54,2.01,11.76,
70892,1661548717286,-0.7379,0.3041,-0.3695,-22.06,-2.39,10.94,
70893,1661548717286,-0.775,0.3563,0.0871,-25.45,9.96,9.38,
70894,1661548717286,-0.6397,0.3417,-0.1248,-21.45,16.05,11.67,
70895,1661548717286,-0.63,0.2416,-0.7996,-22.55,7.17,6.37,
70896,1661548717286,-0.5602,0.3754,-0.6868,-20.55,5.73,6.65,
70897,1661548717286,-0.6891,0.3827,-0.015,-16.57,3.95,8.57,
70898,1661548717286,-0.7486,0.3388,-0.2645,-13.44,0.16,9.12,
70899,1661548717286,-0.6988,0.2411,-0.7171,-15.87,-8.57,5.73,
70900,1661548717286,-0.8141,0.3119,-0.078,-22.57,5.81,3.83,
70901,1661548717286,-0.7901,0.184,-0.0687,-18.16,5.14,4.01,
70902,1661548717286,-0.7838,-0.006,-0.4022,-16.14,-7.3,2.18,
70903,1661548717286,-0.7999,-0.0026,-0.2376,-14.46,-2.05,6.28,
70904,1661548717286,-0.962,0.0741,0.2048,-17.04,2.01,11.94,
70905,1661548717294,-0.8785,-0.11,-0.2283,-19.26,2.51,7.11,
70906,1661548717294,-0.9898,-0.1554,-0.2157,-26.35,-5.61,7.93,
70907,1661548717294,-1.0191,-0.0616,0.28,-26.56,-8.82,-1.56,
70908,1661548717294,-1.0968,-0.1793,-0.2962,-18.07,-12.79,3.09,
70909,1661548717294,-1.0797,-0.2145,-0.2435,-20.55,-2.98,1.45,
70910,1661548717294,-1.3443,0.0512,0.7175,-31.72,-7.95,6.47,
70911,1661548717294,-1.2706,0.1083,0.6593,-28.36,-13.22,-1.19,
70912,1661548717294,-0.9635,-0.2194,-0.492,-24.66,-15.25,3.0,
70913,1661548717294,-1.109,0.077,0.0236,-27.94,7.33,-5.39,
70914,1661548717294,-1.1852,0.1888,0.7707,-33.25,10.63,-5.21,
70915,1661548717294,-1.2906,-0.0162,-0.1976,-23.76,-5.51,-7.76,
70916,1661548717294,-1.3087,0.1342,-0.1385,-25.65,-2.55,0.55,
70917,1661548717294,-1.4132,0.1556,0.4841,-29.74,7.26,-2.48,
70918,1661548717294,-1.2667,0.2201,-0.1175,-38.24,3.87,-6.03,
70919,1661548717294,-1.067,0.1322,-0.3416,-36.02,-4.49,-4.66,
70920,1661548717294,-1.2076,0.0678,0.0983,-30.15,-2.39,-5.39,
70921,1661548717294,-1.2799,0.243,0.6252,-25.65,1.67,-5.12,
70922,1661548717294,-1.3722,0.0516,0.2458,-32.06,2.94,-3.56,
70923,1661548717302,-1.3033,0.0057,-0.0902,-40.36,-7.71,-4.57,
70924,1661548717302,-1.3453,0.0585,0.5759,-38.85,10.22,0.64,
70925,1661548717302,-1.3155,-0.0016,0.5002,-34.44,18.41,1.72,
70926,1661548717302,-1.1803,0.0077,-0.3504,-31.14,3.95,-1.93,
70927,1661548717302,-1.13,-0.0089,-0.1527,-35.54,-1.45,2.36,
70928,1661548717302,-1.4298,0.1224,0.922,-38.86,0.57,-0.46,
70929,1661548717302,-1.1202,0.0585,0.0036,-34.56,-4.58,4.01,
70930,1661548717302,-1.0982,0.0184,-0.4329,-33.95,-0.19,0.09,
70931,1661548717302,-1.0401,0.2772,0.8259,-37.73,20.37,4.28,
70932,1661548717302,-1.1031,0.1259,0.1896,-38.86,12.08,1.63,
70933,1661548717302,-0.8927,0.0521,-0.4613,-28.75,-6.2,5.02,
70934,1661548717302,-0.9088,0.2587,-0.0125,-26.84,8.27,3.55,
70935,1661548717302,-1.0958,0.4447,0.8903,-26.05,20.7,0.73,
70936,1661548717302,-0.7799,0.1654,-0.4373,-32.94,9.79,3.37,
70937,1661548717302,-0.7853,0.3207,-0.3543,-36.04,14.35,-3.28,
70938,1661548717310,-0.9371,0.3998,0.5754,-28.55,17.74,4.83,
70939,1661548717310,-0.7896,0.2904,-0.3983,-22.23,8.2,-1.56,
70940,1661548717310,-0.5904,0.3436,-0.7918,-21.96,3.11,3.28,
70941,1661548717310,-0.6671,0.3104,-0.1683,-27.94,8.6,2.54,
70942,1661548717310,-0.7667,0.4179,0.3986,-30.64,14.69,-0.1,
70943,1661548717310,-0.6114,0.183,-0.5843,-24.15,2.18,4.01,
70944,1661548717310,-0.7315,0.3207,-0.366,-23.25,5.9,1.99,
70945,1661548717310,-0.838,0.3607,0.2765,-21.06,6.5,3.55,
70946,1661548717310,-0.8243,0.2216,0.0744,-20.06,-0.36,-0.1,
70947,1661548717310,-0.5899,0.2426,-0.4237,-17.96,-1.55,4.56,
70948,1661548717310,-0.693,0.1805,-0.3787,-16.77,-0.69,4.28,
70949,1661548717310,-0.5514,0.0785,0.0265,-19.55,12.25,7.11,
70950,1661548717310,-0.7794,0.0443,-0.1395,-20.17,5.73,1.81,
70951,1661548717310,-0.6861,-0.0651,-0.6678,-17.47,-13.39,5.82,
70952,1661548717310,-0.8658,0.2123,0.0998,-16.36,-17.52,3.92,
70953,1661548717310,-0.8785,0.1747,0.4596,-16.07,3.11,4.37,
70954,1661548717310,-0.6905,-0.0284,-0.2611,-16.07,-1.88,5.73,
70955,1661548717310,-0.6935,0.1596,-0.6336,-23.94,0.82,3.64,
70956,1661548717310,-0.7569,0.0951,0.4479,-22.44,9.62,6.74,
70957,1661548717310,-0.8478,0.1102,0.0827,-18.84,5.06,6.92,
70958,1661548717318,-0.9059,0.1898,-0.5501,-12.97,-12.46,8.57,
70959,1661548717318,-0.9283,0.1293,-0.3402,-19.74,5.56,3.55,
70960,1661548717318,-0.8805,0.3051,0.4035,-23.45,7.26,2.82,
70961,1661548717318,-0.8604,-0.0065,-0.6063,-25.45,-4.41,5.28,
70962,1661548717318,-0.8795,0.0858,-0.494,-24.84,-8.23,4.01,
70963,1661548717318,-1.1007,0.2264,0.4133,-20.45,-9.57,1.81,
70964,1661548717318,-1.2013,0.0033,0.1149,-20.05,-4.41,1.45,
70965,1661548717318,-1.1778,0.0546,-0.242,-24.75,-14.15,5.46,
70966,1661548717318,-1.0836,0.1141,0.03,-27.94,-3.82,1.72,
70967,1661548717318,-1.1686,0.0228,0.5212,-26.17,4.37,3.28,
70968,1661548717318,-1.1998,-0.1515,-0.1302,-23.15,-6.28,-0.83,
70969,1661548717318,-1.1622,-0.0055,0.071,-27.94,-1.29,-4.29,
70970,1661548717318,-1.3399,0.0272,0.4025,-34.44,-5.51,-9.04,
70971,1661548717324,-1.0772,-0.1285,-0.1156,-31.86,-6.7,-5.76,
70972,1661548717324,-1.2193,-0.0558,-0.0091,-29.07,-1.29,-3.01,
70973,1661548717324,-1.1983,-0.0392,0.3473,-33.13,2.02,-2.2,
70974,1661548717324,-1.2633,-0.0641,0.2384,-36.94,-11.86,1.81,
70975,1661548717324,-1.2945,0.0121,0.2331,-30.55,-1.29,-1.19,
70976,1661548717324,-1.2413,0.0614,0.529,-33.06,3.61,4.19,
70977,1661548717324,-1.1803,0.1073,0.3385,-36.04,6.07,-3.56,
70978,1661548717324,-1.1217,0.1195,0.2004,-39.95,4.8,-0.0,
70979,1661548717324,-1.0782,0.1527,0.3844,-36.35,9.29,0.18,
70980,1661548717324,-1.3482,0.2645,0.3512,-34.25,2.51,-3.1,
70981,1661548717324,-1.3009,0.2074,0.0553,-31.25,8.6,1.35,
70982,1661548717324,-1.1573,0.3065,0.0251,-31.34,14.11,-6.21,
70983,1661548717324,-1.0899,0.3505,0.1486,-38.86,15.45,-2.64,
70984,1661548717324,-1.004,0.3202,0.0724,-39.05,9.03,-5.67,
70985,1661548717324,-0.8766,0.2982,-0.0428,-35.84,-0.19,-3.93,
70986,1661548717324,-0.9532,0.3436,-0.0301,-29.14,11.82,-1.1,
70987,1661548717324,-1.0187,0.3641,0.1105,-29.94,11.33,4.37,
70988,1661548717324,-1.0025,0.2074,-0.0589,-33.54,7.67,2.27,
70989,1661548717324,-0.9625,0.2728,0.0671,-31.25,7.84,2.54,
70990,1661548717333,-1.0221,0.1488,-0.1082,-26.76,4.88,-1.84,
70991,1661548717333,-0.7779,0.1884,-0.1116,-27.05,8.77,-0.65,
70992,1661548717333,-0.8829,0.1928,0.0915,-28.85,6.5,-2.92,
70993,1661548717333,-0.9444,0.0795,0.0842,-28.44,-1.21,3.46,
70994,1661548717333,-0.8448,0.0717,-0.2308,-25.47,-11.19,5.37,
70995,1661548717333,-0.8575,0.0995,0.1667,-24.37,8.19,7.38,
70996,1661548717333,-0.7579,0.1581,0.2038,-27.25,9.96,0.73,
70997,1661548717333,-0.7413,0.1303,-0.202,-27.25,7.76,7.29,
70998,1661548717333,-0.5948,0.0805,-0.0667,-25.94,9.96,4.01,
70999,1661548717333,-0.8985,0.2577,0.257,-17.76,7.67,6.74,
71000,1661548717333,-0.8302,0.3348,-0.328,-18.86,-2.39,10.84,
71001,1661548717333,-0.8727,0.3617,-0.1429,-21.04,4.04,4.83,
71002,1661548717333,-0.7286,0.4247,0.1349,-23.47,12.49,3.73,
71003,1661548717333,-0.6539,0.1708,-0.7493,-21.74,3.7,6.01,
71004,1661548717333,-0.5772,0.205,-0.7952,-19.85,7.33,2.45,
71005,1661548717340,-0.6891,0.475,-0.0516,-18.63,5.92,1.09,
71006,1661548717340,-0.7779,0.3138,-0.1287,-17.76,1.08,0.27,
71007,1661548717340,-0.8126,0.2792,-0.659,-16.05,-7.13,3.83,
71008,1661548717340,-0.8102,0.2831,-0.0833,-19.47,-0.45,1.28,
71009,1661548717340,-0.8033,0.3285,0.0397,-19.35,5.4,-1.65,
71010,1661548717340,-0.7364,0.1166,-0.3778,-15.15,-1.38,-4.2,
71011,1661548717340,-0.7457,-0.0963,-0.4432,-13.75,4.63,-1.38,
71012,1661548717340,-0.9503,0.1347,0.2668,-16.25,-1.62,1.0,
71013,1661548717340,-0.8932,-0.1315,-0.2147,-16.25,-18.45,8.57,
71014,1661548717340,-0.9615,-0.1329,-0.3597,-19.74,-7.71,3.18,
71015,1661548717340,-1.0523,-0.0113,0.4098,-22.06,7.84,-0.19,
71016,1661548717340,-0.9752,-0.1691,-0.1395,-22.95,-9.57,0.55,
71017,1661548717340,-1.0919,-0.2042,-0.4119,-19.35,-19.38,0.45,
71018,1661548717340,-1.2442,-0.0577,0.7384,-23.04,6.91,8.11,
71019,1661548717340,-1.1988,0.0609,0.3903,-27.16,-0.11,4.56,
71020,1661548717340,-1.0802,-0.1432,-0.2811,-29.45,-12.53,3.55,
71021,1661548717340,-1.1769,-0.0841,-0.2186,-28.04,-2.39,0.36,
71022,1661548717340,-1.2179,0.2396,0.7585,-26.55,16.05,-2.11,
71023,1661548717340,-1.3038,0.0419,-0.1326,-25.05,3.2,-0.19,
71024,1661548717348,-1.1935,0.1527,-0.512,-27.74,-9.74,-4.02,
71025,1661548717348,-1.3692,0.2108,0.4157,-29.27,0.41,-1.74,
71026,1661548717348,-1.1939,0.2181,0.09,-32.76,0.57,-4.93,
71027,1661548717348,-1.2774,0.1556,-0.3441,-32.94,-0.78,-2.83,
71028,1661548717348,-1.2813,0.0717,-0.0902,-33.45,-0.86,-7.66,
71029,1661548717348,-1.3482,0.2709,0.5221,-31.25,-6.54,-2.92,
71030,1661548717348,-1.297,0.1513,0.2868,-28.94,1.84,-3.56,
71031,1661548717348,-1.2828,0.0341,0.0329,-29.45,1.34,-4.57,
71032,1661548717348,-1.2594,0.0809,0.423,-37.14,4.71,-2.83,
71033,1661548717348,-1.2027,0.0541,0.5885,-36.25,10.72,-4.84,
71034,1661548717348,-1.1168,-0.0279,-0.2352,-32.26,-1.21,0.18,
71035,1661548717348,-1.1681,-0.0314,-0.3255,-30.75,0.32,6.19,
71036,1661548717348,-1.3839,0.0599,0.7013,-34.44,8.77,3.83,
71037,1661548717348,-1.3424,0.142,0.4259,-34.35,-3.32,3.0,
71038,1661548717348,-1.1002,-0.0055,-0.555,-35.14,-14.82,1.09,
71039,1661548717348,-1.0699,0.2264,0.6364,-33.95,9.29,3.09,
71040,1661548717348,-1.046,0.205,0.6745,-31.36,18.34,3.0,
71041,1661548717356,-1.0104,0.1083,-0.1483,-30.64,3.7,3.64,
71042,1661548717356,-0.9464,0.1444,-0.345,-31.54,5.14,4.19,
71043,1661548717356,-1.2599,0.4428,0.9606,-29.56,11.06,-0.55,
71044,1661548717356,-1.0064,0.2479,-0.0116,-26.53,6.59,3.64,
71045,1661548717356,-0.9044,0.2709,-0.6292,-27.16,15.54,-0.46,
71046,1661548717356,-0.9371,0.454,0.4787,-30.35,21.54,2.36,
71047,1661548717356,-0.774,0.3329,-0.0457,-26.64,6.66,4.37,
71048,1661548717356,-0.7291,0.3197,-0.5423,-25.94,-1.71,1.45,
71049,1661548717356,-0.7979,0.3226,-0.4266,-23.94,-1.45,6.47,
71050,1661548717356,-0.901,0.3275,0.4157,-26.35,11.23,4.19,
71051,1661548717356,-0.7647,0.2723,-0.1873,-24.02,6.42,6.01,
71052,1661548717356,-0.734,0.1884,-0.6268,-24.57,6.5,1.72,
71053,1661548717356,-0.8458,0.3886,0.1217,-17.94,9.62,3.28,
71054,1661548717356,-0.817,0.2567,0.2131,-17.85,3.53,2.73,
71055,1661548717356,-0.6881,0.1571,-0.16,-17.67,3.44,1.19,
71056,1661548717356,-0.7154,0.223,-0.4744,-18.65,0.15,3.09,
71057,1661548717364,-0.6778,0.0487,-0.0218,-21.36,-0.45,-1.56,
71058,1661548717364,-0.7926,0.0751,0.0944,-17.65,3.78,1.09,
71059,1661548717364,-0.776,-0.0011,-0.2728,-16.37,-3.82,3.92,
71060,1661548717364,-0.6095,-0.048,-0.6795,-18.43,-3.8,4.83,
71061,1661548717364,-0.8341,0.2387,0.4001,-19.36,0.74,6.92,
71062,1661548717364,-0.6788,-0.025,0.0597,-17.67,-9.92,4.92,
71063,1661548717364,-0.7521,-0.0104,-0.8206,-16.95,-11.53,3.73,
71064,1661548717364,-0.795,0.143,0.2604,-17.06,13.85,7.2,
71065,1661548717364,-0.9933,0.0643,0.3327,-19.45,11.99,7.56,
71066,1661548717364,-0.7804,0.1962,-0.286,-19.96,-4.67,4.47,
71067,1661548717364,-0.7423,0.0853,-0.6048,-19.45,-5.51,7.38,
71068,1661548717364,-0.8248,0.2157,0.3937,-17.47,11.91,5.46,
71069,1661548717364,-0.878,0.0907,-0.3797,-19.85,4.13,6.83,
71070,1661548717364,-0.9366,-0.0275,-0.7825,-23.45,-2.48,1.72,
71071,1661548717364,-1.1954,0.2352,0.299,-24.03,-13.71,4.01,
71072,1661548717364,-1.3111,0.0282,0.2946,-20.25,-10.26,3.37,
71073,1661548717364,-1.1764,0.0521,-0.4002,-16.88,-12.53,3.64,
71074,1661548717364,-1.0128,0.119,-0.2157,-26.05,-1.12,-0.74,
71075,1661548717364,-1.151,0.0722,0.6242,-26.05,4.88,2.64,
71076,1661548717372,-1.2242,-0.2013,0.0251,-26.85,-10.43,3.0,
71077,1661548717372,-1.2013,-0.109,-0.0941,-25.86,-5.44,3.64,
71078,1661548717372,-1.3927,0.0306,0.5812,-29.27,1.17,0.91,
71079,1661548717372,-1.1954,-0.0812,0.0343,-29.95,-3.82,-1.1,
71080,1661548717372,-1.2364,-0.1451,-0.2449,-31.84,-15.84,0.27,
71081,1661548717372,-1.3634,0.0306,0.3732,-27.14,-2.31,-0.55,
71082,1661548717372,-1.1534,-0.0319,0.4025,-30.36,0.06,1.45,
71083,1661548717372,-1.3082,-0.0187,0.0451,-32.35,-8.14,2.36,
71084,1661548717372,-1.1021,0.059,0.3654,-34.24,-4.34,1.72,
71085,1661548717372,-1.276,0.0805,0.5065,-33.64,0.48,6.47,
71086,1661548717372,-1.2442,0.1249,0.2155,-30.36,8.1,-1.19,
71087,1661548717372,-1.1876,0.1112,0.342,-33.16,12.25,4.37,
71088,1661548717372,-1.1104,0.2484,0.4416,-32.65,13.01,-2.48,
71089,1661548717372,-1.1646,0.225,0.2912,-34.16,-0.52,-1.19,
71090,1661548717372,-1.1041,0.1888,0.0002,-31.05,1.84,-0.74,
71091,1661548717372,-1.1964,0.33,0.2297,-33.26,8.02,-0.92,
71092,1661548717372,-1.1822,0.3197,0.2223,-35.34,9.46,-0.55,
71093,1661548717372,-1.0226,0.2557,-0.098,-37.95,0.99,-2.38,
71094,1661548717381,-0.9044,0.3402,0.0148,-32.15,2.68,-3.74,
71095,1661548717381,-0.9684,0.4056,0.2922,-27.25,12.32,-2.29,
71096,1661548717381,-0.9264,0.1967,-0.0408,-26.46,13.09,-2.02,
71097,1661548717381,-0.9391,0.246,0.0724,-28.65,7.17,-0.19,
71098,1661548717381,-1.0353,0.2201,0.0632,-27.94,-1.45,-1.29,
71099,1661548717381,-0.7799,0.1786,-0.2015,-24.44,1.34,1.35,
71100,1661548717381,-0.8653,0.1537,0.0827,-25.53,10.23,1.63,
71101,1661548717381,-0.943,0.1532,0.1291,-23.04,10.29,3.37,
71102,1661548717381,-0.7154,0.0756,-0.1673,-25.74,-3.65,3.55,
71103,1661548717381,-0.8785,0.0931,-0.0794,-21.04,-5.44,3.09,
71104,1661548717381,-0.6925,0.2015,0.3249,-25.66,6.5,0.73,
71105,1661548717386,-0.7164,0.1327,-0.2181,-27.25,2.34,0.27,
71106,1661548717386,-0.5177,0.0697,-0.0599,-23.74,12.08,5.92,
71107,1661548717386,-0.8072,0.1547,0.2155,-19.93,14.2,3.46,
71108,1661548717386,-0.9,0.3041,-0.1492,-15.36,4.3,7.38,
71109,1661548717386,-0.7745,0.3129,-0.4056,-17.26,3.37,4.28,
71110,1661548717386,-0.6246,0.4388,0.2389,-20.95,17.15,2.27,
71111,1661548717386,-0.5743,0.2108,-0.4617,-22.55,9.7,3.37,
71112,1661548717386,-0.5064,0.3329,-0.7679,-23.27,1.84,5.02,
71113,1661548717386,-0.6383,0.4794,-0.3109,-18.05,3.53,-1.65,
71114,1661548717386,-0.7682,0.3466,0.1305,-12.16,1.84,-0.74,
71115,1661548717386,-0.797,0.2748,-0.5374,-13.17,-8.14,-0.65,
71116,1661548717386,-0.7633,0.2308,-0.2806,-14.57,-4.93,-1.74,
71117,1661548717386,-0.7916,0.3246,0.1818,-16.45,4.3,0.09,
71118,1661548717386,-0.7447,-0.027,-0.5116,-16.14,-4.84,-4.29,
71119,1661548717386,-0.7545,-0.0787,-0.18,-16.95,4.97,0.55,
71120,1661548717386,-0.8565,0.0883,0.2004,-12.95,5.4,-4.11,
71121,1661548717386,-0.9317,-0.0099,0.0285,-12.56,-16.01,4.37,
71122,1661548717386,-0.9122,-0.1896,-0.4193,-16.97,-24.37,0.55,
71123,1661548717386,-0.9723,-0.0485,0.2634,-22.63,1.76,8.02,
71124,1661548717394,-0.8683,-0.2003,0.0387,-21.64,6.59,2.36,
71125,1661548717394,-1.0406,-0.2272,-0.5531,-20.66,-11.19,5.02,
71126,1661548717394,-1.107,-0.1139,0.4787,-19.45,-10.67,0.64,
71127,1661548717394,-1.276,0.0975,0.5754,-21.04,-6.7,8.48,
71128,1661548717394,-1.1808,-0.0192,-0.0164,-22.96,-6.78,5.37,
71129,1661548717394,-1.1417,-0.1295,-0.3739,-28.65,-1.71,9.38,
71130,1661548717394,-1.1539,0.2421,0.6174,-30.35,5.9,-1.29,
71131,1661548717394,-1.1588,0.1605,0.1984,-26.24,0.06,7.93,
71132,1661548717394,-0.9996,0.0853,-0.4329,-20.84,6.07,1.35,
71133,1661548717394,-1.2296,0.1766,0.3263,-24.95,8.6,2.36,
71134,1661548717394,-1.1529,0.1888,0.3576,-30.26,3.11,0.82,
71135,1661548717394,-1.3106,0.2235,-0.076,-32.64,-15.16,-4.11,
71136,1661548717394,-1.1773,0.0961,-0.3143,-30.84,-8.82,5.02,
71137,1661548717394,-1.294,0.2318,0.424,-30.35,3.7,-1.65,
71138,1661548717394,-1.2218,0.2479,0.4284,-32.36,4.88,2.18,
71139,1661548717394,-1.2047,0.0741,-0.0116,-31.45,-1.29,-4.11,
71140,1661548717394,-1.2003,0.0888,0.258,-26.95,-5.86,0.36,
71141,1661548717402,-1.3116,0.0477,0.5534,-30.64,9.36,-3.01,
71142,1661548717402,-1.2208,0.0389,0.3571,-32.94,9.87,-1.19,
71143,1661548717402,-1.129,-0.0294,-0.3636,-32.55,-3.24,-4.84,
71144,1661548717402,-1.2545,0.0184,0.3918,-31.86,-0.62,-1.19,
71145,1661548717402,-1.4049,0.1537,0.632,-28.94,-0.19,0.91,
71146,1661548717402,-0.9908,0.0604,-0.4403,-26.17,-4.51,-0.46,
71147,1661548717402,-1.0064,0.1928,0.2795,-34.44,3.2,3.55,
71148,1661548717402,-1.1002,0.2714,0.8796,-40.56,11.32,-0.1,
71149,1661548717402,-1.1046,0.1449,0.2917,-31.66,-0.62,5.02,
71150,1661548717402,-0.9571,0.1239,-0.5682,-22.84,0.82,0.36,
71151,1661548717402,-1.2125,0.4208,0.716,-22.35,20.37,3.18,
71152,1661548717402,-1.0187,0.3451,0.423,-25.36,18.93,-0.28,
71153,1661548717402,-0.7481,0.2245,-0.8045,-28.76,2.01,-0.0,
71154,1661548717402,-0.8561,0.2968,-0.5062,-28.36,10.46,-0.28,
71155,1661548717402,-0.9894,0.4672,0.4689,-24.25,13.01,0.09,
71156,1661548717402,-0.8688,0.3373,-0.2962,-21.65,10.89,1.54,
71157,1661548717402,-0.7926,0.3778,-0.6375,-23.65,0.32,2.54,
71158,1661548717411,-0.8507,0.3788,0.2785,-27.04,2.19,7.11,
71159,1661548717411,-0.755,0.4174,0.2521,-23.05,7.59,1.9,
71160,1661548717411,-0.6793,0.2518,-0.3265,-20.37,2.85,5.2,
71161,1661548717411,-0.7506,0.2421,-0.472,-20.25,8.43,2.18,
71162,1661548717411,-0.8355,0.287,0.2404,-16.36,11.65,4.83,
71163,1661548717411,-0.8375,0.1166,-0.0262,-15.46,5.23,8.11,
71164,1661548717411,-0.7013,0.2201,-0.47,-12.77,-1.62,-0.74,
71165,1661548717411,-0.8048,0.0873,-0.1741,-15.36,-0.69,6.74,
71166,1661548717411,-0.6974,0.0399,0.1296,-18.34,5.82,3.92,
71167,1661548717411,-0.773,0.0526,-0.0931,-20.86,-0.95,6.56,
71168,1661548717411,-0.6954,-0.0289,-0.6546,-16.16,-13.46,6.56,
71169,1661548717411,-0.9005,0.1625,0.1432,-15.04,-6.61,8.3,
71170,1661548717411,-0.837,0.0404,0.4367,-14.05,6.83,7.01,
71171,1661548717411,-0.8614,-0.0333,-0.6073,-19.55,-5.44,7.66,
71172,1661548717411,-0.8204,0.2084,-0.1776,-18.84,-2.14,6.83,
71173,1661548717411,-0.9825,0.101,0.4889,-17.74,8.43,4.19,
71174,1661548717411,-0.8692,0.1303,0.1144,-11.26,6.91,3.46,
71175,1661548717411,-0.7877,0.1322,-0.7381,-11.85,1.17,0.45,
71176,1661548717419,-0.9464,0.1649,0.0656,-14.95,7.84,-2.92,
71177,1661548717419,-1.023,0.1786,-0.0135,-18.75,-4.75,-3.93,
71178,1661548717419,-0.9156,-0.0548,-0.7791,-19.74,-12.46,-2.11,
71179,1661548717419,-1.1085,0.1625,-0.0404,-21.67,-3.82,-3.28,
71180,1661548717419,-1.1891,0.0897,0.3703,-20.64,-0.11,-0.65,
71181,1661548717419,-1.2086,-0.027,0.1227,-19.76,-11.02,-2.64,
71182,1661548717419,-1.1485,0.0018,-0.2596,-21.47,-12.7,0.64,
71183,1661548717419,-1.1998,0.0184,0.3835,-20.55,3.37,-1.84,
71184,1661548717419,-1.255,-0.1329,0.2765,-24.26,1.34,2.09,
71185,1661548717419,-1.1944,-0.1188,-0.222,-26.84,-2.14,2.09,
71186,1661548717419,-1.3253,-0.0089,0.3488,-28.73,-1.53,5.28,
71187,1661548717419,-1.3619,-0.0665,0.2414,-27.25,-0.69,0.36,
71188,1661548717419,-1.2428,-0.1583,-0.2645,-29.07,-8.73,1.81,
71189,1661548717419,-1.2242,-0.069,-0.0648,-30.65,-7.89,-5.02,
71190,1661548717419,-1.2325,-0.0177,0.4201,-26.44,-6.61,2.18,
71191,1661548717419,-1.4054,-0.0602,0.111,-27.66,-9.92,2.82,
71192,1661548717419,-1.1842,0.0424,0.2765,-31.86,0.15,5.28,
71193,1661548717427,-1.4327,0.0443,0.549,-35.16,0.41,2.64,
71194,1661548717427,-1.3668,0.1386,0.3151,-35.26,3.28,2.09,
71195,1661548717427,-1.1441,0.1415,0.1916,-31.34,6.07,7.75,
71196,1661548717427,-1.0606,0.1615,0.318,-31.54,15.28,2.73,
71197,1661548717429,-1.2257,0.2611,0.3268,-31.55,18.24,4.19,
71198,1661548717429,-1.2374,0.1298,-0.015,-30.76,11.06,5.02,
71199,1661548717429,-1.3326,0.2767,0.0876,-31.95,-2.72,5.28,
71200,1661548717429,-1.3072,0.3524,0.2936,-31.65,1.58,1.72,
71201,1661548717429,-1.0816,0.3026,0.1916,-34.24,4.21,2.27,
71202,1661548717429,-0.8766,0.2919,-0.0975,-30.55,9.87,0.91,
71203,1661548717429,-0.964,0.4423,0.2311,-28.64,14.52,0.45,
71204,1661548717429,-0.9488,0.2562,0.0319,-27.14,5.81,2.09,
71205,1661548717429,-0.9542,0.2152,-0.0164,-26.64,6.66,3.09,
71206,1661548717429,-0.9522,0.2606,0.1139,-25.05,15.54,2.45,
71207,1661548717429,-1.0611,0.1991,0.0837,-26.06,9.46,-1.1,
71208,1661548717429,-0.7472,0.1688,-0.1649,-28.24,5.47,-3.93,
71209,1661548717429,-0.8683,0.1508,0.134,-29.86,3.53,-0.74,
71210,1661548717429,-0.7428,0.1371,0.0051,-21.35,-1.12,1.0,
71211,1661548717429,-0.9078,0.1342,-0.1976,-17.96,-5.86,0.91,
71212,1661548717429,-0.8297,0.1054,0.1237,-21.33,13.1,0.91,
71213,1661548717429,-0.7931,0.1991,0.3488,-25.13,10.14,3.73,
71214,1661548717429,-0.7188,0.1864,-0.2791,-22.44,5.47,5.2,
71215,1661548717429,-0.6124,0.1805,0.0685,-19.06,8.43,6.83,
71216,1661548717429,-0.8736,0.3544,0.0553,-17.87,8.86,6.74,
71217,1661548717437,-0.8185,0.3329,-0.3172,-16.57,0.65,6.19,
71218,1661548717437,-0.8585,0.3436,-0.2659,-19.13,10.4,5.2,
71219,1661548717440,-0.7604,0.4633,0.1901,-18.14,14.37,2.82,
71220,1661548717440,-0.6441,0.1478,-0.8621,-19.56,-1.71,4.28,
71221,1661548717440,-0.5504,0.4462,-0.4896,-20.84,10.13,2.09,
71222,1661548717440,-0.7379,0.4281,0.2424,-14.75,15.54,2.18,
71223,1661548717440,-0.776,0.2382,-0.6575,-9.95,0.06,0.45,
71224,1661548717440,-0.7936,0.2006,-0.7738,-10.97,-14.06,-0.74,
71225,1661548717440,-0.777,0.2821,0.1598,-15.55,1.84,1.45,
71226,1661548717440,-0.796,0.2543,0.0519,-12.57,5.99,-4.84,
71227,1661548717440,-0.7828,-0.1686,-0.8724,-12.13,-0.51,-0.92,
71228,1661548717440,-0.7989,0.0902,0.2101,-15.65,4.88,-1.65,
71229,1661548717440,-0.9532,0.0223,0.2414,-12.16,-10.85,8.48,
71230,1661548717440,-0.9415,-0.1778,-0.4085,-9.66,-22.6,5.28,
71231,1661548717440,-0.9615,-0.1481,-0.3802,-16.05,0.06,9.38,
71232,1661548717440,-1.087,0.0272,0.6799,-23.56,3.7,1.9,
71233,1661548717440,-0.8966,-0.2452,-0.3358,-22.66,-18.12,4.83,
71234,1661548717440,-1.0582,-0.2081,-0.4432,-16.65,-15.49,7.11,
71235,1661548717440,-1.2262,-0.0758,0.8512,-20.75,7.26,-0.83,
71236,1661548717440,-1.2032,0.0565,0.1388,-23.45,-5.68,-2.02,
71237,1661548717440,-1.0519,-0.1905,-0.5472,-24.95,-13.98,-4.11,
71238,1661548717440,-1.172,0.1888,0.5436,-23.85,2.85,-2.29,
71239,1661548717448,-1.0958,0.2162,0.4406,-28.76,12.08,0.09,
71240,1661548717448,-1.2657,0.0736,-0.1571,-26.76,0.74,-2.29,
71241,1661548717448,-1.1388,0.2079,-0.4334,-24.44,-6.11,-3.56,
71242,1661548717448,-1.2696,0.181,0.5134,-24.25,3.28,-0.37,
71243,1661548717448,-1.2418,0.181,0.2736,-27.07,4.04,-6.47,
71244,1661548717448,-1.0694,0.1469,-0.3714,-29.05,-1.62,-3.74,
71245,1661548717448,-1.2062,0.1747,0.3215,-32.74,-2.48,-8.76,
71246,1661548717448,-1.2452,0.2435,0.6344,-29.07,3.53,-3.83,
71247,1661548717448,-1.2594,0.1566,0.2839,-22.75,4.8,-4.66,
71248,1661548717448,-1.2247,0.0199,-0.0692,-24.34,2.86,-1.74,
71249,1661548717448,-1.2423,0.1019,0.5519,-36.56,4.54,-4.11,
71250,1661548717448,-1.1402,0.0692,0.5402,-38.54,4.13,-6.93,
71251,1661548717448,-1.0792,-0.0577,-0.3958,-33.74,-3.15,-6.75,
71252,1661548717448,-1.1212,0.0145,0.1833,-28.55,9.87,-0.92,
71253,1661548717448,-1.3839,0.0995,0.7336,-31.75,15.97,0.18,
71254,1661548717448,-1.3736,0.1366,0.3351,-33.14,-5.86,0.64,
71255,1661548717448,-1.1183,0.0619,-0.4129,-33.66,-15.75,-0.92,
71256,1661548717456,-1.1095,0.2728,0.7243,-30.17,10.8,-0.28,
71257,1661548717456,-1.0025,0.2367,0.5905,-29.16,19.1,2.09,
71258,1661548717456,-0.8995,0.1659,-0.5789,-26.75,12.16,1.45,
71259,1661548717456,-0.9908,0.3886,0.3268,-25.34,10.72,2.73,
71260,1661548717456,-1.2511,0.433,0.8503,-22.84,18.08,2.64,
71261,1661548717456,-0.9981,0.3305,-0.0277,-20.93,11.74,3.18,
71262,1661548717456,-0.8414,0.2738,-0.7581,-28.35,16.81,1.0,
71263,1661548717456,-0.8775,0.5077,0.2785,-29.75,21.97,2.09,
71264,1661548717456,-0.7647,0.3514,0.0534,-27.14,8.02,3.73,
71265,1661548717456,-0.631,0.3754,-0.7401,-18.45,-3.48,1.0,
71266,1661548717456,-0.796,0.3007,-0.557,-18.97,-5.01,3.64,
71267,1661548717461,-0.8805,0.3539,0.464,-23.04,9.62,3.18,
71268,1661548717461,-0.8019,0.3168,0.1047,-24.84,7.59,-2.2,
71269,1661548717461,-0.6793,0.1781,-0.7923,-19.04,7.59,-1.38,
71270,1661548717461,-0.7662,0.3529,0.1374,-17.06,15.12,2.18,
71271,1661548717461,-0.8712,0.1371,0.2326,-14.27,9.87,0.64,
71272,1661548717461,-0.7516,0.0878,-0.2391,-13.76,-4.08,-2.48,
71273,1661548717461,-0.7721,0.1986,-0.5701,-15.44,-10.66,0.27,
71274,1661548717461,-0.7438,0.0834,0.132,-17.13,-1.27,3.46,
71275,1661548717461,-0.7628,-0.0284,-0.0579,-15.04,3.87,5.11,
71276,1661548717461,-0.7633,-0.0358,-0.66,-15.15,-2.98,4.37,
71277,1661548717461,-0.8644,0.1854,-0.0003,-17.55,-7.71,4.19,
71278,1661548717461,-0.8727,0.1405,0.4157,-13.35,-4.84,4.37,
71279,1661548717461,-0.8136,-0.046,-0.4119,-10.76,-0.28,7.29,
71280,1661548717461,-0.8199,0.058,-0.5599,-16.55,8.77,2.09,
71281,1661548717461,-0.8136,0.1869,0.1227,-17.85,14.28,1.09,
71282,1661548717461,-0.9459,0.0751,0.2326,-16.16,9.03,0.36,
71283,1661548717461,-0.8858,0.1796,-0.5858,-12.16,-7.63,-1.47,
71284,1661548717461,-0.9396,0.119,-0.2606,-11.75,0.57,5.11,
71285,1661548717461,-0.9757,0.2406,0.0881,-14.36,7.0,-0.19,
71286,1661548717469,-0.9254,0.1161,-0.2108,-19.16,4.3,2.18,
71287,1661548717469,-0.9537,0.0048,-0.515,-20.95,-3.15,-4.38,
71288,1661548717469,-1.1354,0.1449,0.0861,-18.97,-12.12,2.82,
71289,1661548717469,-1.2555,0.0282,0.2438,-15.06,-10.76,-4.02,
71290,1661548717469,-1.2032,0.0433,-0.1912,-17.67,-7.97,0.64,
71291,1661548717469,-1.2052,0.0399,0.2033,-22.64,0.06,-2.64,
71292,1661548717469,-1.2374,-0.0958,0.5065,-22.37,6.74,-1.01,
71293,1661548717469,-1.2491,-0.1993,0.1105,-18.37,-3.48,2.36,
71294,1661548717469,-1.1163,-0.1105,-0.1683,-24.15,-0.62,0.45,
71295,1661548717469,-1.3619,0.0346,0.4977,-29.84,-2.48,-0.19,
71296,1661548717469,-1.2896,-0.1085,0.1012,-25.85,-13.39,3.0,
71297,1661548717469,-1.2677,-0.131,-0.2669,-21.16,-11.53,3.73,
71298,1661548717469,-1.4063,0.0765,0.423,-27.66,3.37,6.1,
71299,1661548717469,-1.3985,-0.0372,0.2419,-32.26,-5.35,5.82,
71300,1661548717469,-1.2115,0.0492,0.0661,-31.26,-9.24,6.74,
71301,1661548717477,-1.1637,0.0629,0.3371,-27.04,0.07,3.92,
71302,1661548717477,-1.3644,0.1327,0.5651,-26.37,3.28,2.36,
71303,1661548717477,-1.2975,0.139,0.1227,-26.26,7.5,1.19,
71304,1661548717477,-1.2257,0.1395,0.2858,-32.65,14.78,2.18,
71305,1661548717477,-1.3424,0.306,0.3669,-32.16,15.04,0.91,
71306,1661548717477,-1.0895,0.2035,0.1003,-31.14,4.71,-2.64,
71307,1661548717477,-1.0426,0.1884,-0.1683,-29.54,5.4,-4.75,
71308,1661548717477,-1.213,0.3856,0.2707,-28.24,5.47,-4.84,
71309,1661548717477,-1.253,0.2821,0.1901,-28.56,4.37,-0.83,
71310,1661548717477,-1.0294,0.2465,-0.1478,-31.84,-0.69,-1.65,
71311,1661548717477,-1.0426,0.4115,0.2004,-30.94,7.09,0.55,
71312,1661548717477,-0.9684,0.4354,0.3166,-23.74,14.69,-3.38,
71313,1661548717477,-0.9298,0.1708,-0.0667,-22.06,10.8,-0.83,
71314,1661548717477,-0.942,0.1835,0.0666,-25.86,7.09,-2.92,
71315,1661548717477,-1.0436,0.2938,0.1554,-25.34,1.67,1.09,
71316,1661548717477,-0.8175,0.1674,-0.2166,-22.05,3.95,-2.02,
71317,1661548717477,-0.9093,0.1102,0.0661,-20.25,12.08,-0.74,
71318,1661548717477,-0.9654,0.1708,0.1178,-22.76,6.5,-0.19,
71319,1661548717477,-0.693,0.1005,-0.1346,-21.94,-14.56,1.19,
71320,1661548717477,-0.8551,0.1439,-0.0579,-19.67,-2.14,1.72,
71321,1661548717485,-0.6979,0.1903,0.3908,-18.36,11.06,6.37,
71322,1661548717485,-0.7164,0.1058,-0.1341,-18.97,7.84,3.37,
71323,1661548717485,-0.5211,0.1718,-0.0008,-23.04,11.32,0.73,
71324,1661548717485,-0.8927,0.3134,0.1974,-19.45,11.56,2.09,
71325,1661548717485,-0.7506,0.3392,-0.4256,-11.55,0.32,-0.92,
71326,1661548717485,-0.7618,0.3104,-0.3919,-12.77,9.53,-1.93,
71327,1661548717485,-0.65,0.4408,0.3044,-14.46,18.41,-4.48,
71328,1661548717485,-0.6456,0.2289,-0.5614,-20.06,0.65,-1.29,
71329,1661548717485,-0.5152,0.3046,-0.6512,-17.96,0.82,-2.11,
71330,1661548717485,-0.6759,0.4706,0.258,-9.05,7.0,2.64,
71331,1661548717485,-0.7003,0.2738,-0.45,-8.77,4.13,-0.0,
71332,1661548717485,-0.7877,0.2377,-0.7513,-12.45,-3.32,-0.55,
71333,1661548717485,-0.7462,0.2387,-0.1199,-14.13,3.38,3.37,
71334,1661548717485,-0.8063,0.2738,0.216,-12.02,-2.46,-1.65,
71335,1661548717485,-0.7403,-0.1178,-0.783,-10.04,-9.39,1.81,
71336,1661548717494,-0.7716,-0.0162,-0.0955,-14.75,9.12,-0.1,
71337,1661548717494,-1.026,0.1112,0.4509,-15.35,2.27,3.09,
71338,1661548717494,-0.8546,-0.296,-0.679,-13.76,-22.86,-4.75,
71339,1661548717494,-1.0045,-0.1085,-0.0106,-10.57,-16.77,4.56,
71340,1661548717494,-1.0274,-0.0494,0.6003,-16.14,16.38,-2.02,
71341,1661548717494,-0.8902,-0.2174,0.0251,-21.85,-6.78,3.09,
71342,1661548717494,-1.003,-0.2408,-0.5999,-17.85,-17.11,-0.0,
71343,1661548717494,-1.0924,-0.1612,0.6642,-14.37,1.25,8.57,
71344,1661548717494,-1.2374,0.0844,0.4743,-18.36,2.01,2.27,
71345,1661548717494,-1.0567,-0.1774,-0.6283,-23.94,-6.96,11.76,
71346,1661548717494,-1.2145,0.0585,0.2267,-24.55,2.44,-1.93,
71347,1661548717494,-1.1339,0.2264,0.6759,-22.37,7.5,8.39,
71348,1661548717494,-1.1334,-0.0187,-0.5291,-15.96,0.57,2.18,
71349,1661548717494,-0.9791,0.1107,-0.6619,-19.94,0.06,5.55,
71350,1661548717494,-1.1808,0.2186,0.2902,-27.74,-1.12,0.91,
71351,1661548717494,-1.2481,0.1483,0.444,-29.14,-4.25,-0.0,
71352,1661548717494,-1.1495,0.1303,-0.4803,-23.54,-8.14,4.37,
71353,1661548717494,-1.2691,0.1312,0.1115,-25.65,2.01,-1.84,
71354,1661548717494,-1.3722,0.3055,0.78,-28.36,1.51,-0.65,
71355,1661548717502,-1.2408,0.2142,0.4982,-24.55,-4.17,-7.48,
71356,1661548717502,-1.1925,-0.0568,-0.1663,-21.47,-2.14,2.27,
71357,1661548717502,-1.2472,0.1078,0.4308,-27.85,10.8,-4.38,
71358,1661548717502,-1.148,0.1195,0.6989,-33.46,11.23,0.18,
71359,1661548717502,-1.1661,-0.0563,-0.2679,-32.06,-4.75,-0.46,
71360,1661548717502,-1.1202,-0.0109,-0.0843,-25.56,-1.45,4.19,
71361,1661548717502,-1.4674,0.0848,0.8014,-25.34,12.16,-1.47,
71362,1661548717502,-1.2501,0.1239,0.0275,-29.14,4.47,4.56,
71363,1661548717502,-1.0328,0.0858,-0.3538,-33.45,-5.94,0.64,
71364,1661548717502,-1.0626,0.225,0.3698,-29.54,0.15,1.45,
71365,1661548717502,-0.92,0.2597,0.8097,-28.35,7.43,6.56,
71366,1661548717502,-0.9337,0.1801,-0.3402,-24.15,6.83,5.92,
71367,1661548717502,-0.9449,0.3856,0.0514,-21.04,11.91,4.92,
71368,1661548717502,-1.1603,0.4545,0.6735,-24.26,19.18,4.47,
71369,1661548717502,-0.9771,0.3949,0.3981,-25.47,10.63,2.82,
71370,1661548717502,-0.7354,0.2972,-0.7298,-24.17,2.1,4.28,
71371,1661548717502,-0.7604,0.537,-0.0233,-21.94,15.54,4.19,
71372,1661548717510,-0.7896,0.4642,0.3122,-19.04,18.24,3.55,
71373,1661548717510,-0.6612,0.3461,-0.5272,-16.45,4.13,2.36,
71374,1661548717510,-0.8155,0.3793,-0.6663,-18.16,-4.25,6.01,
71375,1661548717510,-0.7691,0.4262,0.1589,-20.25,5.06,3.28,
71376,1661548717510,-0.7999,0.4193,0.3732,-16.14,6.74,2.73,
71377,1661548717510,-0.6212,0.1571,-0.6414,-16.46,-2.48,4.65,
71378,1661548717510,-0.6847,0.348,-0.1058,-17.85,6.66,2.82,
71379,1661548717510,-0.815,0.1962,0.3434,-13.56,12.92,4.83,
71380,1661548717510,-0.818,0.0761,-0.0628,-9.14,7.78,1.63,
71381,1661548717510,-0.6979,0.1415,-0.6263,-8.56,6.16,2.18,
71382,1661548717510,-0.8155,0.1366,-0.015,-15.85,3.44,-1.1,
71383,1661548717510,-0.6949,-0.0074,-0.0057,-19.15,-2.31,2.73,
71384,1661548717510,-0.7506,-0.0416,-0.5706,-14.46,-11.86,0.91,
71385,1661548717510,-0.6993,0.1166,-0.1698,-10.95,-3.48,4.56,
71386,1661548717510,-0.8053,0.2059,0.3356,-11.46,4.8,-0.74,
71387,1661548717510,-0.7784,-0.0065,0.0871,-14.16,-0.11,3.64,
71388,1661548717510,-0.8849,0.015,-0.4837,-13.66,-4.58,-0.37,
71389,1661548717510,-0.8653,0.2069,-0.1038,-9.17,4.88,2.45,
71390,1661548717518,-0.9581,0.077,0.2082,-10.16,14.87,-2.74,
71391,1661548717518,-0.8282,0.2826,-0.39,-10.05,7.84,-2.11,
71392,1661548717518,-0.8023,0.139,-0.4993,-13.95,-0.78,-1.47,
71393,1661548717518,-0.8028,0.2015,-0.0072,-10.65,-0.02,-1.74,
71394,1661548717518,-1.0167,0.1469,-0.1156,-9.87,-0.52,-0.46,
71395,1661548717518,-0.9469,0.0048,-0.4696,-16.57,-1.38,-0.28,
71396,1661548717518,-1.0821,0.1932,-0.118,-19.74,-9.33,2.27,
71397,1661548717518,-1.1373,0.0326,0.2614,-16.84,-9.4,2.64,
71398,1661548717518,-1.0831,0.0365,-0.0472,-10.47,-10.26,3.83,
71399,1661548717518,-1.1012,0.0145,-0.0965,-14.94,-2.03,4.65,
71400,1661548717518,-1.2252,-0.0543,0.4709,-19.26,4.04,6.37,
71401,1661548717523,-1.232,-0.1735,0.1261,-23.65,-6.96,6.28,
71402,1661548717523,-1.1969,-0.1446,-0.0994,-22.83,-4.99,8.02,
71403,1661548717523,-1.2247,0.0126,0.2316,-25.74,5.4,6.28,
71404,1661548717523,-1.3067,-0.0392,0.2731,-23.86,3.02,4.83,
71405,1661548717523,-1.2101,-0.1735,-0.2191,-25.74,-14.82,2.45,
71406,1661548717523,-1.3766,0.0668,0.2751,-23.34,-13.98,3.64,
71407,1661548717523,-1.297,-0.0196,0.3913,-23.74,-7.47,3.73,
71408,1661548717523,-1.2501,0.0648,0.0719,-27.75,-0.52,2.27,
71409,1661548717523,-1.2472,0.0761,0.258,-28.75,7.59,-0.37,
71410,1661548717523,-1.462,0.1405,0.6022,-28.15,4.21,3.55,
71411,1661548717523,-1.3395,0.1835,0.2448,-26.56,1.51,3.28,
71412,1661548717523,-1.2257,0.1918,0.2853,-24.57,6.57,2.54,
71413,1661548717523,-1.2169,0.3378,0.4577,-23.15,13.42,-2.83,
71414,1661548717523,-1.2799,0.2597,0.2614,-27.65,12.58,0.18,
71415,1661548717523,-1.2096,0.1693,-0.1126,-28.46,13.51,-0.74,
71416,1661548717523,-1.3263,0.3222,0.1769,-30.84,0.24,0.27,
71417,1661548717523,-1.316,0.3597,0.3019,-28.96,1.58,-1.29,
71418,1661548717531,-1.1104,0.243,-0.0623,-25.27,-0.36,1.0,
71419,1661548717531,-1.024,0.3978,0.1134,-29.25,5.47,-0.19,
71420,1661548717531,-1.0099,0.4535,0.3293,-27.05,15.28,-0.74,
71421,1661548717531,-0.9635,0.2411,0.0485,-20.25,10.8,2.09,
71422,1661548717531,-0.9166,0.1366,-0.1029,-22.15,19.01,2.64,
71423,1661548717531,-1.0606,0.3065,0.2677,-26.76,12.08,-0.28,
71424,1661548717531,-0.9547,0.2059,-0.1615,-23.47,-2.72,-1.38,
71425,1661548717531,-0.8897,0.1005,-0.2034,-15.65,5.4,0.64,
71426,1661548717531,-1.0563,0.1766,0.1911,-19.45,12.32,-0.0,
71427,1661548717531,-0.8292,0.1698,0.0617,-18.16,8.86,0.45,
71428,1661548717531,-0.9405,0.1932,-0.2757,-20.75,-1.04,2.64,
71429,1661548717531,-0.7413,0.205,0.2467,-22.26,1.17,6.47,
71430,1661548717531,-0.8487,0.1615,0.133,-19.45,-3.82,8.57,
71431,1661548717531,-0.589,0.1552,-0.0633,-14.05,10.22,11.67,
71432,1661548717531,-0.8546,0.2748,0.2262,-17.65,18.0,9.75,
71433,1661548717531,-0.8834,0.3915,0.0138,-15.36,8.77,10.11,
71434,1661548717531,-0.6661,0.2977,-0.4198,-13.55,3.28,6.74,
71435,1661548717531,-0.6446,0.3471,0.1066,-11.26,18.24,5.37,
71436,1661548717531,-0.6661,0.2411,-0.368,-11.87,10.29,4.56,
71437,1661548717531,-0.6017,0.2387,-0.8514,-15.04,2.34,4.01,
71438,1661548717539,-0.7628,0.5067,0.0978,-15.75,4.37,-0.92,
71439,1661548717539,-0.6612,0.4188,0.1725,-9.96,-3.07,-1.74,
71440,1661548717539,-0.7354,0.2113,-0.7181,-6.36,-8.31,-1.47,
71441,1661548717539,-0.7008,0.2118,-0.3289,-9.35,5.31,-4.02,
71442,1661548717539,-0.8468,0.3226,0.4089,-11.37,15.79,-6.03,
71443,1661548717539,-0.7657,-0.0724,-0.7318,-8.67,-10.0,-0.55,
71444,1661548717539,-0.8229,-0.1427,-0.4075,-8.15,-11.19,-0.19,
71445,1661548717539,-1.0157,0.139,0.7238,-10.45,9.87,5.37,
71446,1661548717539,-1.004,0.0136,0.235,-8.45,-1.62,4.01,
71447,1661548717539,-0.8282,-0.3151,-0.866,-13.67,-12.46,1.35,
71448,1661548717539,-1.0431,-0.0616,0.4289,-19.94,-7.8,1.99,
71449,1661548717539,-0.9127,-0.172,0.3952,-14.36,-10.76,2.18,
71450,1661548717539,-0.9513,-0.2374,-0.7747,-12.95,-8.73,4.19,
71451,1661548717539,-1.0333,-0.2067,0.3859,-20.35,1.58,0.27,
71452,1661548717539,-1.3121,0.0263,0.7585,-19.67,-2.72,0.64,
71453,1661548717539,-1.1583,-0.1725,-0.5321,-16.25,-14.91,-3.74,
71454,1661548717539,-1.2838,-0.0343,-0.0487,-17.47,-3.82,4.01,
71455,1661548717547,-1.1339,0.1923,0.6305,-24.05,8.43,-0.37,
71456,1661548717547,-1.1578,0.1596,0.467,-24.57,7.84,1.81,
71457,1661548717547,-1.0245,0.0082,-0.742,-17.15,-6.61,-2.64,
71458,1661548717547,-1.2857,0.2098,0.0602,-18.16,-2.81,1.45,
71459,1661548717547,-1.4005,0.1693,0.7785,-25.16,2.51,-0.1,
71460,1661548717547,-1.2721,0.1981,-0.3817,-30.64,-9.74,1.09,
71461,1661548717551,-1.2638,0.1395,-0.2581,-28.15,-10.93,-0.55,
71462,1661548717551,-1.2271,0.2513,0.4577,-23.04,11.39,-2.74,
71463,1661548717551,-1.2965,0.2411,0.6296,-21.83,7.01,-4.02,
71464,1661548717551,-1.2867,-0.0431,-0.2288,-21.86,-0.62,-1.38,
71465,1661548717551,-1.3033,0.0765,0.1916,-25.15,-1.55,-3.56,
71466,1661548717551,-1.2457,0.0736,0.655,-27.07,10.05,-3.47,
71467,1661548717551,-1.2149,-0.0377,-0.0033,-30.65,8.02,-5.02,
71468,1661548717551,-1.131,0.0033,-0.1805,-30.75,0.06,-2.29,
71469,1661548717551,-1.3624,0.0624,0.611,-26.24,-6.87,-1.65,
71470,1661548717551,-1.4181,0.1298,0.6979,-23.25,-3.24,2.45,
71471,1661548717551,-1.089,0.0858,-0.0643,-24.15,-2.55,5.64,
71472,1661548717551,-1.1153,0.1596,0.11,-30.36,3.61,1.9,
71473,1661548717551,-0.9483,0.2396,0.8517,-29.16,14.11,2.27,
71474,1661548717551,-1.047,0.1986,-0.0819,-27.92,4.15,-0.28,
71475,1661548717551,-0.9327,0.3329,-0.3665,-17.55,6.24,5.92,
71476,1661548717551,-0.9469,0.4135,0.193,-21.16,16.55,-0.0,
71477,1661548717551,-0.9596,0.452,0.6237,-22.55,20.44,1.09,
71478,1661548717551,-0.7765,0.3378,-0.5804,-22.55,5.9,2.45,
71479,1661548717559,-0.7916,0.4139,-0.4754,-23.04,5.06,0.64,
71480,1661548717559,-0.922,0.4921,0.3664,-21.33,4.82,1.9,
71481,1661548717559,-0.8614,0.348,-0.2635,-17.74,2.6,7.84,
71482,1661548717559,-0.7008,0.3471,-0.5902,-13.66,-5.01,9.38,
71483,1661548717559,-0.6837,0.4091,-0.1278,-16.14,1.67,8.94,
71484,1661548717559,-0.8038,0.4745,0.631,-16.84,15.97,7.84,
71485,1661548717559,-0.6251,0.1835,-0.4388,-16.36,4.63,8.57,
71486,1661548717559,-0.6612,0.244,-0.3763,-17.06,5.99,5.64,
71487,1661548717559,-0.8028,0.2372,0.4308,-14.45,6.33,8.2,
71488,1661548717559,-0.8639,0.1688,0.1794,-11.15,-3.15,5.64,
71489,1661548717559,-0.6192,0.1268,-0.7064,-6.65,-4.34,7.11,
71490,1661548717559,-0.795,0.1117,-0.1873,-8.97,4.63,7.29,
71491,1661548717559,-0.6402,0.0204,0.1901,-11.47,10.29,7.93,
71492,1661548717559,-0.7618,-0.0372,-0.4783,-15.55,-5.1,9.65,
71493,1661548717559,-0.7652,-0.024,-0.536,-14.16,-12.7,9.2,
71494,1661548717559,-0.8385,0.2216,0.1305,-7.03,-2.89,6.19,
71495,1661548717559,-0.8048,0.0883,0.2951,-5.55,10.29,8.48,
71496,1661548717567,-0.7975,0.0121,-0.4046,-10.45,11.32,9.38,
71497,1661548717567,-0.8155,0.2377,-0.2005,-14.77,4.21,3.83,
71498,1661548717567,-0.9015,0.101,0.2106,-14.56,0.32,7.29,
71499,1661548717567,-0.9703,0.1205,0.1139,-8.25,2.68,2.09,
71500,1661548717567,-0.8746,0.1703,-0.5653,-4.96,-4.41,4.92,
71501,1661548717567,-0.9625,0.1381,-0.3118,-7.17,2.77,8.57,
71502,1661548717567,-0.9576,0.184,-0.0526,-13.27,4.47,1.9,
71503,1661548717567,-0.8873,0.0023,-0.4007,-16.97,-4.0,6.37,
71504,1661548717567,-0.982,0.0223,-0.3231,-15.04,-13.13,3.0,
71505,1661548717567,-1.1256,0.1288,0.0778,-11.56,-8.4,-2.64,
71506,1661548717567,-1.211,-0.0768,0.1828,-12.97,0.48,3.46,
71507,1661548717567,-1.1446,-0.0118,-0.1248,-16.57,-1.62,3.37,
71508,1661548717567,-1.1964,-0.0695,0.0656,-18.16,-5.77,2.18,
71509,1661548717567,-1.2784,-0.1422,0.3952,-15.94,0.99,-0.46,
71510,1661548717567,-1.1837,-0.1593,-0.0794,-16.86,-1.12,-0.65,
71511,1661548717567,-1.1031,-0.0465,0.0026,-26.35,-6.37,-4.66,
71512,1661548717567,-1.2994,-0.0055,0.3156,-26.35,-6.54,-0.37,
71513,1661548717575,-1.0895,-0.1949,-0.1966,-21.35,-6.54,1.99,
71514,1661548717575,-1.2267,-0.1539,-0.2894,-21.47,1.51,0.27,
71515,1661548717575,-1.3351,0.1083,0.4714,-26.95,1.34,-1.84,
71516,1661548717575,-1.4176,-0.0284,0.2565,-30.17,-12.96,-1.47,
71517,1661548717575,-1.2301,0.0482,0.048,-23.02,-9.82,4.47,
71518,1661548717578,-1.3912,0.1356,0.5866,-23.16,-0.28,0.73,
71519,1661548717578,-1.2716,0.2372,0.3488,-24.57,10.46,-0.37,
71520,1661548717578,-1.0655,0.1693,0.0519,-28.85,8.1,1.9,
71521,1661548717578,-1.234,0.1366,0.2458,-30.76,13.59,-0.92,
71522,1661548717578,-1.3663,0.3236,0.362,-25.15,7.09,-2.2,
71523,1661548717578,-1.2657,0.184,-0.1492,-23.67,3.44,-1.38,
71524,1661548717578,-1.2496,0.3187,-0.0116,-26.05,4.8,-0.92,
71525,1661548717578,-1.1954,0.4149,0.3234,-30.84,11.73,-0.83,
71526,1661548717578,-1.0372,0.2684,-0.0184,-27.65,0.74,-1.47,
71527,1661548717578,-0.9659,0.3583,-0.0028,-26.26,0.91,-3.65,
71528,1661548717578,-1.0577,0.4154,0.258,-19.74,8.52,-1.84,
71529,1661548717578,-1.0489,0.3007,0.1598,-18.65,4.3,-2.2,
71530,1661548717578,-0.9596,0.12,-0.1536,-22.96,9.53,-0.19,
71531,1661548717578,-1.0313,0.3065,0.32,-24.17,16.64,1.28,
71532,1661548717578,-1.0377,0.3046,0.0549,-20.06,12.42,0.36,
71533,1661548717578,-0.8067,0.1176,-0.2874,-18.66,0.48,-0.55,
71534,1661548717578,-0.9469,0.0961,-0.0091,-21.16,-3.82,-0.1,
71535,1661548717578,-0.9771,0.2318,0.2638,-17.53,-2.13,3.37,
71536,1661548717578,-0.8248,0.1556,-0.264,-15.15,-8.31,1.99,
71537,1661548717586,-0.6656,0.1698,0.214,-17.26,10.22,2.91,
71538,1661548717586,-0.8771,0.2035,0.2917,-20.16,5.81,0.18,
71539,1661548717586,-0.7052,0.2421,-0.2132,-18.57,2.51,3.55,
71540,1661548717586,-0.5191,0.2152,-0.0926,-13.85,6.66,0.82,
71541,1661548717586,-0.8502,0.3627,0.1794,-9.15,10.98,1.0,
71542,1661548717586,-0.6925,0.3461,-0.306,-12.56,6.33,5.92,
71543,1661548717586,-0.733,0.3192,-0.054,-14.66,16.05,0.27,
71544,1661548717586,-0.7076,0.3368,-0.1903,-12.27,9.36,2.54,
71545,1661548717586,-0.7179,0.2245,-0.8626,-11.37,-3.41,5.11,
71546,1661548717586,-0.5538,0.2997,-0.4603,-12.25,5.23,3.37,
71547,1661548717586,-0.7481,0.4037,0.236,-12.07,2.51,-0.1,
71548,1661548717586,-0.7276,0.2572,-0.5721,-8.27,-3.82,1.54,
71549,1661548717586,-0.6979,0.2108,-0.5018,-7.35,-6.11,3.18,
71550,1661548717586,-0.776,0.2758,0.3298,-10.85,13.51,-1.01,
71551,1661548717586,-0.7306,0.0565,-0.599,-8.27,8.69,-2.83,
71552,1661548717586,-0.6998,-0.194,-1.0467,-6.97,-3.91,0.73,
71553,1661548717595,-0.8463,0.0394,-0.0228,-6.76,1.08,-0.0,
71554,1661548717595,-1.0816,0.036,0.4015,-7.25,-10.09,-1.19,
71555,1661548717595,-0.8648,-0.3487,-0.8602,-5.48,-23.87,8.39,
71556,1661548717595,-1.0401,-0.1559,0.0602,-14.46,-3.24,1.9,
71557,1661548717595,-1.0079,-0.1153,0.6657,-18.45,5.31,5.37,
71558,1661548717595,-0.9488,-0.2247,-0.5408,-17.53,-18.53,-0.55,
71559,1661548717595,-1.0519,-0.2369,0.1037,-8.65,-11.27,11.12,
71560,1661548717595,-1.1007,-0.1905,0.7282,-17.74,9.29,8.39,
71561,1661548717595,-1.2579,0.1088,0.5109,-19.35,7.43,6.74,
71562,1661548717595,-1.0221,-0.2325,-0.6761,-22.64,-2.9,8.2,
71563,1661548717595,-1.1173,0.0331,0.2048,-20.84,0.32,6.19,
71564,1661548717595,-1.192,0.2123,0.7092,-20.96,9.87,6.65,
71565,1661548717595,-1.1192,-0.0655,-0.8153,-17.74,-8.73,1.19,
71566,1661548717595,-0.9845,0.0697,-0.9178,-20.46,-10.76,4.01,
71567,1661548717595,-1.1871,0.224,0.6613,-25.05,5.06,-1.1,
71568,1661548717595,-1.3121,0.1532,0.6467,-22.64,0.57,-0.19,
71569,1661548717595,-1.0816,0.1268,-0.7933,-24.26,-10.0,-5.76,
71570,1661548717595,-1.273,0.2235,0.384,-23.36,8.95,-2.74,
71571,1661548717595,-1.3834,0.2733,0.8849,-24.55,7.33,-6.4,
71572,1661548717595,-1.318,-0.0914,-0.2264,-21.94,0.65,0.55,
71573,1661548717595,-1.1646,-0.0314,-0.2581,-21.04,6.74,-4.02,
71574,1661548717603,-1.2867,0.1596,0.6017,-26.06,5.64,1.45,
71575,1661548717603,-1.0943,0.0155,0.4723,-29.05,-4.51,-2.74,
71576,1661548717603,-1.192,-0.0465,-0.3221,-30.75,-11.95,-1.29,
71577,1661548717603,-1.1676,0.0663,0.0768,-26.44,-2.9,1.9,
71578,1661548717603,-1.4591,0.0941,0.7961,-23.86,7.5,8.11,
71579,1661548717603,-1.2188,0.1068,0.1872,-23.54,5.14,7.29,
71580,1661548717603,-1.088,0.1083,-0.117,-28.96,0.82,1.54,
71581,1661548717603,-1.0523,0.2772,0.3752,-28.35,9.87,3.55,
71582,1661548717603,-0.9459,0.2621,0.7482,-24.82,15.8,-0.83,
71583,1661548717603,-0.9479,0.2831,-0.2928,-20.06,8.1,1.28,
71584,1661548717603,-0.8478,0.3656,-0.1517,-21.45,11.39,-0.83,
71585,1661548717603,-1.0304,0.4652,0.6921,-21.76,21.97,1.19,
71586,1661548717603,-0.9654,0.4598,0.3029,-20.86,15.21,2.54,
71587,1661548717603,-0.7481,0.3363,-0.9032,-21.15,4.54,-1.38,
71588,1661548717603,-0.7896,0.5482,-0.2293,-23.36,11.99,-2.55,
71589,1661548717603,-0.797,0.4862,0.3976,-20.17,7.84,-2.02,
71590,1661548717603,-0.6764,0.3544,-0.4456,-15.96,0.74,-1.65,
71591,1661548717611,-0.7452,0.371,-0.2674,-15.65,-4.67,0.82,
71592,1661548717611,-0.8272,0.4667,0.7072,-17.56,14.45,-1.38,
71593,1661548717611,-0.8136,0.368,0.4928,-13.37,8.02,1.09,
71594,1661548717611,-0.669,0.1259,-0.7088,-14.05,2.01,-2.74,
71595,1661548717611,-0.6993,0.3363,-0.0716,-14.13,18.26,-1.93,
71596,1661548717611,-0.8683,0.2045,0.3239,-11.66,16.14,1.63,
71597,1661548717611,-0.5914,0.1249,-0.6361,-10.76,-6.2,0.36,
71598,1661548717611,-0.7882,0.1205,-0.5081,-14.56,-13.39,4.83,
71599,1661548717611,-0.6432,0.0311,0.1862,-13.47,-4.34,5.11,
71600,1661548717611,-0.7623,-0.0138,-0.0169,-11.05,-2.81,3.73,
71601,1661548717611,-0.8082,-0.0543,-0.5218,-8.65,-0.69,3.55,
71602,1661548717611,-0.7589,0.1508,-0.0076,-13.46,-4.41,2.09,
71603,1661548717611,-0.777,0.1693,0.401,-11.28,-1.12,4.37,
71604,1661548717611,-0.6397,-0.0568,-0.3719,-6.45,-3.15,2.64,
71605,1661548717611,-0.7149,0.2304,-0.3958,-6.74,13.61,4.01,
71606,1661548717611,-0.8248,0.1185,0.2394,-12.14,17.31,-1.65,
71607,1661548717611,-1.0299,0.1347,0.2419,-13.55,8.69,3.46,
71608,1661548717619,-0.8385,0.2084,-0.5872,-10.25,-12.79,2.82,
71609,1661548717619,-0.8834,0.1058,-0.4422,-9.95,-9.5,1.35,
71610,1661548717619,-0.8683,0.1312,0.1955,-5.96,1.67,3.92,
71611,1661548717619,-0.8785,-0.0133,-0.3089,-12.05,0.82,-0.37,
71612,1661548717619,-0.9029,0.1107,-0.2176,-17.96,-1.04,2.09,
71613,1661548717619,-1.1168,0.1664,0.0729,-19.73,-8.63,1.54,
71614,1661548717619,-1.1881,-0.0406,0.3361,-13.47,-3.24,1.9,
71615,1661548717623,-1.1446,-0.0074,-0.0662,-11.37,-7.63,-1.38,
71616,1661548717623,-1.2232,-0.0738,-0.0218,-17.55,-0.36,1.99,
71617,1661548717623,-1.2755,-0.048,0.4621,-18.16,4.97,1.0,
71618,1661548717623,-1.1954,-0.1915,-0.1536,-17.55,-0.69,4.92,
71619,1661548717623,-1.0226,-0.0963,-0.1527,-18.95,-5.35,1.99,
71620,1661548717623,-1.3219,-0.0011,0.4758,-28.75,-6.7,6.47,
71621,1661548717623,-1.0563,-0.1857,-0.139,-24.37,-15.08,3.83,
71622,1661548717623,-1.1891,-0.1798,-0.4359,-19.27,-7.21,7.47,
71623,1661548717623,-1.3487,0.1112,0.4518,-22.55,11.82,0.18,
71624,1661548717623,-1.3395,-0.005,0.5334,-31.14,-0.62,2.27,
71625,1661548717623,-1.2203,0.0746,-0.0306,-26.44,-10.0,-3.01,
71626,1661548717623,-1.3434,0.1122,0.5412,-26.44,-0.69,-0.55,
71627,1661548717623,-1.2662,0.1967,0.5817,-20.34,13.19,-3.38,
71628,1661548717623,-1.0865,0.1376,-0.0018,-25.85,12.32,-1.47,
71629,1661548717623,-1.027,0.2421,0.2682,-25.95,13.01,-2.92,
71630,1661548717623,-1.2052,0.3046,0.2253,-28.94,3.11,-2.74,
71631,1661548717623,-1.1505,0.1932,-0.0584,-27.34,0.91,1.0,
71632,1661548717623,-1.1378,0.2728,-0.1492,-27.94,0.65,-1.47,
71633,1661548717623,-1.13,0.4379,0.2702,-28.94,15.28,-0.19,
71634,1661548717631,-1.1046,0.2846,0.1037,-25.95,5.73,-2.02,
71635,1661548717631,-0.9283,0.3417,-0.099,-26.24,0.48,-0.55,
71636,1661548717631,-0.9718,0.4569,0.2467,-24.44,6.83,-1.01,
71637,1661548717631,-1.0211,0.3588,0.2419,-22.06,7.17,0.36,
71638,1661548717631,-0.9557,0.1332,-0.2034,-23.15,7.33,-2.64,
71639,1661548717631,-0.9591,0.2416,0.07,-23.54,14.95,-4.38,
71640,1661548717631,-1.0689,0.3373,0.1227,-19.93,11.58,0.73,
71641,1661548717631,-0.7081,0.1176,-0.3363,-16.05,2.51,0.36,
71642,1661548717631,-0.9205,0.1029,0.05,-17.45,-1.71,2.64,
71643,1661548717631,-1.0357,0.2157,0.2467,-20.75,-5.77,-0.1,
71644,1661548717631,-0.8849,0.16,-0.1492,-20.55,-10.09,3.09,
71645,1661548717631,-0.9068,0.1649,0.0265,-17.74,5.47,5.02,
71646,1661548717631,-0.9029,0.2577,0.5075,-20.95,7.17,7.66,
71647,1661548717631,-0.7955,0.2167,-0.1795,-18.36,-2.39,7.84,
71648,1661548717631,-0.6534,0.2748,-0.1507,-13.56,4.04,9.47,
71649,1661548717631,-0.8546,0.3231,0.1037,-13.05,19.27,5.73,
71650,1661548717631,-0.8526,0.4218,-0.0701,-13.95,15.62,3.83,
71651,1661548717631,-0.8434,0.3197,-0.2606,-14.24,9.88,8.02,
71652,1661548717631,-0.6876,0.4008,-0.1414,-16.04,-2.03,6.1,
71653,1661548717639,-0.6607,0.2567,-0.7064,-10.13,-10.32,4.01,
71654,1661548717639,-0.6412,0.4144,-0.1185,-8.65,8.36,1.35,
71655,1661548717639,-0.7188,0.3363,0.1086,-8.16,9.96,6.01,
71656,1661548717639,-0.8185,0.2767,-0.2772,-9.26,-2.81,5.2,
71657,1661548717639,-0.7774,0.1849,-0.4632,-12.33,-9.15,3.28,
71658,1661548717639,-0.7438,0.2162,0.362,-8.06,8.77,3.09,
71659,1661548717639,-0.6739,0.1073,-0.2933,-3.84,6.59,-0.37,
71660,1661548717639,-0.7921,-0.1339,-0.9246,-2.33,1.76,2.36,
71661,1661548717639,-0.8541,-0.0226,-0.1859,-12.97,13.01,-0.1,
71662,1661548717639,-1.0543,0.078,0.4924,-14.25,-12.88,1.99,
71663,1661548717639,-0.8858,-0.2921,-0.7772,-9.66,-34.7,0.64,
71664,1661548717639,-1.0343,-0.212,-0.243,-8.76,-11.36,4.92,
71665,1661548717639,-1.0963,-0.0367,0.8068,-16.36,13.76,1.28,
71666,1661548717639,-0.983,-0.2594,-0.3387,-19.74,-12.12,2.36,
71667,1661548717639,-1.067,-0.1949,-0.1903,-11.75,-20.48,-3.47,
71668,1661548717639,-1.2779,-0.0865,0.9967,-17.55,11.91,6.92,
71669,1661548717639,-1.2193,-0.0138,0.0993,-18.17,16.38,1.72,
71670,1661548717647,-1.0846,-0.2081,-0.6947,-20.26,-2.05,4.74,
71671,1661548717647,-1.2428,-0.0314,-0.0643,-19.04,1.75,-1.74,
71672,1661548717647,-1.2301,0.2821,0.8019,-20.95,3.95,2.18,
71673,1661548717647,-1.1881,0.0057,-0.6366,-18.75,-14.15,4.19,
71674,1661548717647,-1.1583,0.1791,-0.6082,-20.64,-7.8,-4.2,
71675,1661548717647,-1.3297,0.1903,1.0358,-22.84,6.91,-3.01,
71676,1661548717647,-1.276,0.1166,0.1935,-25.27,-5.35,-4.48,
71677,1661548717647,-1.0841,0.1205,-0.5545,-25.07,-11.95,-4.84,
71678,1661548717647,-1.3004,0.3148,0.7717,-29.05,10.13,-8.49,
71679,1661548717647,-1.4078,0.3021,0.9328,-20.64,14.61,-3.74,
71680,1661548717647,-1.2511,-0.0641,-0.1151,-19.85,10.98,-2.38,
71681,1661548717647,-1.211,0.0765,-0.1517,-23.76,4.47,-5.39,
71682,1661548717647,-1.2691,0.1688,0.4494,-29.83,1.93,-2.55,
71683,1661548717647,-1.0914,-0.0597,0.0036,-27.66,-4.17,1.72,
71684,1661548717647,-1.0948,0.0194,-0.3055,-25.07,-4.0,-1.01,
71685,1661548717647,-1.1422,0.0111,0.2199,-25.34,-0.19,5.73,
71686,1661548717647,-1.3844,0.1263,0.6418,-30.75,-4.67,1.72,
71687,1661548717655,-1.315,0.1469,0.4865,-28.96,-7.54,7.29,
71688,1661548717655,-1.1949,0.1078,0.112,-26.56,-5.61,0.18,
71689,1661548717655,-1.0865,0.3007,0.6969,-26.06,19.77,6.19,
71690,1661548717655,-1.1275,0.2606,0.672,-25.13,27.23,5.28,
71691,1661548717655,-0.9356,0.3021,-0.4046,-22.63,13.1,4.01,
71692,1661548717655,-0.9625,0.3978,0.0231,-24.96,12.08,3.0,
71693,1661548717655,-1.0885,0.392,0.5104,-22.84,18.41,-1.84,
71694,1661548717655,-0.9122,0.4052,-0.1258,-18.55,10.89,2.18,
71695,1661548717655,-0.7838,0.3539,-1.0213,-21.93,2.86,-2.02,
71696,1661548717655,-0.9352,0.5238,0.1139,-24.46,5.64,0.82,
71697,1661548717655,-0.8902,0.4174,0.3605,-21.67,-0.86,-1.65,
71698,1661548717655,-0.7643,0.3466,-0.4891,-16.97,-12.62,0.64,
71699,1661548717655,-0.7853,0.4564,0.2282,-17.15,-1.97,-5.67,
71700,1661548717655,-0.9054,0.5038,0.7804,-16.65,21.13,-1.65,
71701,1661548717655,-0.7491,0.2308,0.1945,-14.27,17.31,-2.11,
71702,1661548717655,-0.7374,0.1347,-0.6893,-11.56,16.98,0.55,
71703,1661548717655,-0.7926,0.3339,0.1735,-13.15,20.79,-1.29,
71704,1661548717655,-0.8209,0.1698,-0.1444,-12.45,0.57,-0.46,
71705,1661548717663,-0.5948,0.0931,-0.9593,-11.67,-10.17,-3.01,
71706,1661548717663,-0.8258,0.057,-0.3416,-7.75,-4.75,7.56,
71707,1661548717663,-0.7076,0.0048,0.0046,-6.77,1.51,3.0,
71708,1661548717667,-0.8053,-0.0113,-0.2049,-11.67,-7.04,1.81,
71709,1661548717667,-0.7804,-0.0206,-0.3294,-14.85,-19.05,4.56,
71710,1661548717667,-0.8746,0.1718,0.2883,-11.66,-4.75,5.82,
71711,1661548717667,-0.7779,0.0072,0.405,-7.37,16.38,10.3,
71712,1661548717667,-0.86,0.0013,-0.3441,-7.46,16.9,4.37,
71713,1661548717667,-0.8961,0.202,-0.2523,-13.06,12.75,3.83,
71714,1661548717667,-0.8458,0.0765,0.1174,-17.55,6.74,2.18,
71715,1661548717667,-0.9498,0.1464,0.0846,-12.48,0.91,-1.38,
71716,1661548717667,-0.8253,0.1332,-0.8748,-6.74,-15.23,0.55,
71717,1661548717667,-0.9361,0.098,-0.4149,-11.35,-5.01,-1.47,
71718,1661548717667,-1.0167,0.1097,0.0827,-15.46,-2.39,-2.83,
71719,1661548717667,-0.9962,-0.0211,-0.389,-13.96,-17.61,-0.55,
71720,1661548717672,-1.0694,0.2025,0.0397,-13.87,-14.15,-6.12,
71721,1661548717672,-1.0987,0.0145,0.4831,-14.86,-2.48,-6.03,
71722,1661548717672,-1.1734,-0.1422,0.3732,-17.65,9.62,-7.02,
71723,1661548717672,-1.1549,-0.1163,-0.1214,-16.36,4.37,-6.57,
71724,1661548717672,-1.2315,-0.129,0.1896,-15.04,11.06,-7.3,
71725,1661548717672,-1.3087,-0.1227,0.3151,-16.86,-2.48,2.64,
71726,1661548717672,-1.1705,-0.2179,-0.4583,-21.86,-15.75,1.9,
71727,1661548717672,-1.1539,-0.0797,-0.0145,-23.45,-6.78,1.54,
71728,1661548717672,-1.3272,-0.0431,0.3581,-23.45,4.97,0.64,
71729,1661548717672,-1.1256,-0.2403,-0.4202,-22.26,-8.82,4.01,
71730,1661548717672,-1.2936,0.0565,0.3176,-26.75,-14.15,-1.38,
71731,1661548717672,-1.274,0.0375,0.7663,-26.23,-12.61,4.92,
71732,1661548717672,-1.4488,-0.0416,0.3478,-21.94,-1.88,0.82,
71733,1661548717672,-1.2687,0.0453,0.1344,-21.54,13.01,1.09,
71734,1661548717672,-1.5245,0.1234,0.7585,-31.34,19.68,2.09,
71735,1661548717672,-1.3121,0.2435,0.4196,-33.34,10.39,2.36,
71736,1661548717672,-1.1505,0.1307,-0.0897,-27.85,2.01,-2.2,
71737,1661548717672,-1.1031,0.3827,0.3185,-23.94,12.16,-3.74,
71738,1661548717672,-1.3316,0.3593,0.3366,-27.34,13.01,-4.11,
71739,1661548717672,-1.2154,0.1605,-0.075,-31.36,11.23,-5.3,
71740,1661548717680,-1.2545,0.3212,-0.0784,-31.16,-2.39,-5.85,
71741,1661548717680,-1.2516,0.4066,0.4313,-26.26,-4.25,-7.57,
71742,1661548717681,-1.1642,0.2597,0.2179,-27.45,-0.62,-5.3,
71743,1661548717681,-1.0411,0.393,0.1701,-27.05,10.05,-3.93,
71744,1661548717681,-1.0519,0.4247,0.4435,-25.07,17.65,-2.48,
71745,1661548717681,-0.942,0.2025,-0.0819,-19.56,18.24,-4.38,
71746,1661548717681,-0.8468,0.1732,-0.1356,-22.66,19.01,0.55,
71747,1661548717681,-1.0025,0.3031,0.1281,-26.03,9.47,-2.38,
71748,1661548717681,-0.9898,0.3163,-0.1253,-23.15,-1.62,-2.48,
71749,1661548717681,-0.8043,0.0204,-0.5721,-16.54,-4.4,1.09,
71750,1661548717681,-0.9693,0.182,0.0387,-16.25,7.17,2.09,
71751,1661548717681,-0.8541,0.2416,-0.0267,-19.26,-2.31,3.0,
71752,1661548717681,-0.8219,0.1493,-0.1868,-21.67,-11.02,6.65,
71753,1661548717681,-0.7535,0.2421,0.5456,-19.16,3.53,6.65,
71754,1661548717681,-0.878,0.2636,0.548,-16.95,9.53,4.65,
71755,1661548717681,-0.6563,0.3031,-0.0506,-13.35,13.51,5.46,
71756,1661548717681,-0.8312,0.2352,0.0002,-18.26,14.19,2.64,
71757,1661548717681,-0.8614,0.4237,0.2214,-16.65,11.23,-0.1,
71758,1661548717689,-0.7408,0.3519,-0.3753,-10.76,7.0,-0.0,
71759,1661548717689,-0.6095,0.3597,-0.3846,-9.95,17.15,1.0,
71760,1661548717689,-0.544,0.3973,-0.4168,-10.95,4.71,-1.74,
71761,1661548717689,-0.6915,0.264,-0.6746,-17.74,-14.32,-1.84,
71762,1661548717689,-0.7223,0.2792,-0.3045,-7.46,-11.95,5.02,
71763,1661548717689,-0.7765,0.2743,0.0431,-7.25,3.2,7.01,
71764,1661548717689,-0.8019,0.2352,-0.3206,-9.87,3.78,0.82,
71765,1661548717689,-0.7623,0.0839,-0.054,-16.34,10.9,-0.74,
71766,1661548717689,-0.7218,0.1044,0.2624,-11.96,13.09,0.18,
71767,1661548717689,-0.7296,-0.0631,-0.2479,-7.66,-3.58,-0.55,
71768,1661548717689,-0.7872,-0.0431,-0.6741,-3.46,5.64,4.01,
71769,1661548717689,-0.9557,0.0394,0.1706,-10.24,11.33,2.18,
71770,1661548717689,-0.9327,-0.232,-0.2694,-16.16,0.74,4.37,
71771,1661548717689,-0.9439,-0.2765,-0.6517,-16.97,-25.14,-0.28,
71772,1661548717696,-1.0694,-0.1222,0.4342,-12.97,-18.38,10.94,
71773,1661548717696,-1.0489,-0.1842,0.1159,-12.07,0.82,1.35,
71774,1661548717696,-0.9469,-0.1725,-0.304,-15.27,-2.31,8.66,
71775,1661548717696,-0.9273,-0.2257,0.2121,-19.94,-7.63,-0.65,
71776,1661548717696,-1.3297,0.0126,1.0212,-15.93,-1.27,-0.37,
71777,1661548717696,-1.1993,-0.13,-0.1136,-15.76,-1.62,2.54,
71778,1661548717696,-1.254,-0.1295,-0.3275,-22.96,11.73,2.27,
71779,1661548717696,-1.1803,0.2426,0.7497,-27.45,14.69,2.54,
71780,1661548717696,-1.1773,0.0765,-0.3026,-17.45,-3.58,-0.28,
71781,1661548717696,-1.0294,0.1596,-0.8787,-13.73,-12.61,1.0,
71782,1661548717696,-1.2579,0.143,0.6545,-25.16,0.15,-6.4,
71783,1661548717696,-1.3673,0.0844,0.9225,-29.14,-1.55,-2.48,
71784,1661548717696,-1.2359,0.1371,-0.2171,-28.75,-22.1,-4.75,
71785,1661548717696,-1.2086,0.1146,-0.1668,-26.24,-1.21,-3.19,
71786,1661548717696,-1.4439,0.2987,1.1051,-25.65,9.96,-3.28,
71787,1661548717696,-1.3502,-0.0362,0.507,-26.84,5.06,-1.01,
71788,1661548717696,-1.2726,-0.0314,0.0407,-25.63,7.61,-2.83,
71789,1661548717696,-1.339,0.1459,0.6764,-25.65,15.45,-6.4,
71790,1661548717696,-1.1788,-0.0231,0.4499,-30.76,13.09,-5.39,
71791,1661548717696,-1.1324,0.0668,-0.3983,-34.73,1.76,-1.38,
71792,1661548717704,-1.0714,0.1268,-0.4564,-31.74,1.75,-1.65,
71793,1661548717704,-1.2301,0.0643,0.133,-24.44,7.26,3.28,
71794,1661548717704,-1.274,0.2015,0.2702,-25.74,6.07,3.64,
71795,1661548717704,-1.1319,0.16,-0.4075,-27.95,-4.67,2.36,
71796,1661548717704,-1.0406,0.3002,0.2018,-31.95,-2.81,0.73,
71797,1661548717704,-1.0445,0.2264,0.7922,-29.34,7.76,5.02,
71798,1661548717704,-1.1446,0.1649,0.3776,-26.64,10.05,2.36,
71799,1661548717704,-0.9576,0.3422,-0.408,-19.16,8.86,2.27,
71800,1661548717704,-1.1856,0.4403,0.6193,-23.85,26.36,6.28,
71801,1661548717704,-1.0182,0.4486,0.5705,-25.45,26.03,7.01,
71802,1661548717704,-0.7643,0.3695,-0.7977,-24.15,6.33,4.19,
71803,1661548717704,-0.7174,0.4252,-0.7518,-20.75,6.24,0.36,
71804,1661548717704,-0.8922,0.4794,0.2194,-21.67,11.15,2.36,
71805,1661548717704,-0.8243,0.3563,-0.0907,-19.04,4.21,2.45,
71806,1661548717704,-0.7882,0.2948,-0.6151,-19.74,-1.79,-1.19,
71807,1661548717704,-0.859,0.433,0.2541,-17.06,-3.58,2.45,
71808,1661548717704,-0.7364,0.3007,0.3117,-17.04,1.41,-1.47,
71809,1661548717704,-0.6061,0.162,-0.1776,-15.46,-6.54,1.72,
71810,1661548717712,-0.6856,0.1976,-0.305,-18.36,10.72,-1.1,
71811,1661548717712,-0.86,0.2655,0.4113,-15.56,21.71,2.36,
71812,1661548717712,-0.6588,0.1156,-0.2396,-10.45,20.96,3.55,
71813,1661548717712,-0.7584,0.1801,-0.7108,-13.76,0.15,4.19,
71814,1661548717712,-0.8614,0.0575,-0.0555,-15.17,-2.31,4.56,
71815,1661548717712,-0.8263,-0.0685,-0.3289,-14.66,-15.49,1.99,
71816,1661548717712,-0.8185,0.0077,-0.6239,-6.87,-5.1,1.63,
71817,1661548717712,-0.6236,0.0927,-0.345,-10.66,2.34,1.28,
71818,1661548717712,-0.8238,0.2587,0.3508,-16.46,0.48,1.72,
71819,1661548717712,-0.586,-0.1222,-0.0286,-14.97,-4.25,0.27,
71820,1661548717712,-0.8038,0.1176,-0.3299,-10.95,-4.17,-1.38,
71821,1661548717712,-0.899,0.2206,0.3053,-7.86,10.22,-4.84,
71822,1661548717712,-1.0172,0.0951,0.3327,-8.76,20.53,0.73,
71823,1661548717712,-0.7936,0.1752,-0.0863,-11.28,13.25,1.09,
71824,1661548717712,-0.6969,0.0946,-0.6512,-13.84,6.85,0.27,
71825,1661548717712,-0.8185,0.1044,-0.0487,-15.56,-1.88,0.18,
71826,1661548717712,-0.9151,0.0258,-0.1771,-13.47,-16.35,0.91,
71827,1661548717721,-0.9352,0.0184,-0.5238,-12.86,-15.25,2.64,
71828,1661548717721,-1.1163,0.1342,0.0881,-17.67,-8.47,-3.74,
71829,1661548717721,-1.2257,-0.09,0.5075,-18.75,-1.55,0.45,
71830,1661548717721,-1.2164,-0.1451,-0.0111,-14.85,-10.93,-3.28,
71831,1661548717721,-1.2657,-0.1676,0.2038,-15.14,-5.93,1.35,
71832,1661548717723,-1.2325,-0.1129,0.6784,-22.35,11.15,2.64,
71833,1661548717723,-1.3028,-0.1954,0.3283,-24.76,11.23,10.02,
71834,1661548717723,-1.047,-0.1905,-0.4359,-23.54,6.07,3.92,
71835,1661548717723,-1.3097,-0.0821,0.3063,-24.75,4.63,1.72,
71836,1661548717723,-1.1607,-0.1788,0.0929,-23.45,-8.4,1.99,
71837,1661548717723,-1.1788,-0.1949,-0.7157,-27.94,-30.48,3.0,
71838,1661548717723,-1.316,0.1556,0.3991,-22.66,2.77,4.74,
71839,1661548717723,-1.2369,0.0756,0.5514,-26.43,-0.77,3.55,
71840,1661548717723,-1.2755,-0.0284,-0.0272,-28.23,0.07,1.9,
71841,1661548717723,-1.1446,0.0936,0.4123,-32.15,0.41,1.28,
71842,1661548717723,-1.3741,0.1932,0.8527,-28.44,5.64,-1.84,
71843,1661548717723,-1.2931,0.1268,0.3537,-27.86,13.25,-2.02,
71844,1661548717723,-1.2257,0.1508,0.3444,-27.75,20.37,-0.46,
71845,1661548717723,-1.0162,0.3021,0.4694,-31.07,23.23,-2.48,
71846,1661548717723,-1.0738,0.3031,0.1574,-29.05,10.55,0.36,
71847,1661548717723,-1.0206,0.1942,-0.1971,-30.04,0.99,-1.38,
71848,1661548717723,-1.1495,0.3334,0.0578,-30.06,-0.11,0.09,
71849,1661548717731,-1.2374,0.3446,0.11,-31.36,-1.04,2.73,
71850,1661548717731,-1.086,0.2064,-0.118,-28.17,-3.07,0.36,
71851,1661548717731,-0.9986,0.3861,0.276,-31.07,1.84,1.0,
71852,1661548717731,-1.0021,0.4379,0.3752,-27.25,14.35,0.36,
71853,1661548717731,-0.8902,0.2103,-0.0091,-21.85,19.01,-2.74,
71854,1661548717731,-0.8355,0.16,-0.013,-23.96,21.04,-2.48,
71855,1661548717731,-0.9742,0.3905,0.2599,-29.75,13.01,-0.1,
71856,1661548717734,-0.7462,0.2279,-0.2933,-22.05,8.52,-0.74,
71857,1661548717734,-0.8854,0.0194,-0.4945,-16.75,10.89,0.27,
71858,1661548717734,-0.9039,0.2289,0.0329,-21.15,13.51,0.09,
71859,1661548717734,-0.8097,0.2421,-0.0218,-23.96,-7.89,3.46,
71860,1661548717734,-0.8546,0.1459,-0.3831,-23.76,-16.85,3.64,
71861,1661548717734,-0.6793,0.2138,0.2746,-20.26,-5.61,3.18,
71862,1661548717734,-0.8316,0.3207,0.4299,-21.86,5.31,3.55,
71863,1661548717734,-0.5367,0.2777,-0.2132,-22.44,7.67,2.54,
71864,1661548717734,-0.8087,0.3256,0.2267,-18.65,18.58,3.37,
71865,1661548717734,-0.8771,0.4613,0.4494,-17.36,20.37,0.64,
71866,1661548717734,-0.8292,0.4467,-0.0872,-14.85,14.45,0.09,
71867,1661548717734,-0.5743,0.3549,-0.4271,-13.95,17.57,-4.11,
71868,1661548717734,-0.5973,0.3265,-0.3866,-16.05,4.3,0.36,
71869,1661548717734,-0.6407,0.3514,-0.5267,-16.46,-6.61,-2.2,
71870,1661548717734,-0.6573,0.2553,-0.4061,-13.85,-12.79,0.36,
71871,1661548717734,-0.7169,0.368,-0.0194,-11.15,-4.84,-3.83,
71872,1661548717734,-0.7418,0.1796,-0.1619,-12.86,-13.39,0.36,
71873,1661548717734,-0.7989,0.0809,-0.035,-11.96,-5.94,-0.65,
71874,1661548717734,-0.7916,0.0463,0.2912,-7.95,5.47,3.83,
71875,1661548717742,-0.8541,-0.1276,-0.096,-5.35,10.98,-4.48,
71876,1661548717742,-0.9068,-0.0695,-0.0452,-12.42,15.73,8.94,
71877,1661548717742,-1.0729,-0.0406,0.1359,-19.65,8.1,4.65,
71878,1661548717742,-0.8424,-0.2487,-0.6566,-17.04,-9.16,12.49,
