srNo,timestamp,ax,ay,az,gx,gy,gz,temp
34928,1661550344879,-0.9539,0.0718,-0.1044,26.73,-5.28,-10.45,
34929,1661550344879,-0.9378,0.1011,-0.2005,21.24,-3.76,-3.8,
34930,1661550344880,-0.9524,0.249,0.0997,19.64,-6.72,-3.89,
34931,1661550344880,-0.9827,0.0537,0.2023,22.54,-12.98,-3.43,
34932,1661550344880,-0.9163,-0.0977,-0.2787,25.94,-10.52,-7.72,
34933,1661550344881,-1.0301,-0.1118,0.1754,20.93,14.43,3.77,
34934,1661550344881,-1.0808,-0.186,0.2404,16.55,12.23,-2.97,
34935,1661550344881,-1.0706,-0.2441,-0.4076,16.74,-7.31,1.48,
34936,1661550344882,-1.1429,-0.2202,0.0578,23.65,-8.58,-2.44,
34937,1661550344882,-1.1985,-0.1567,0.2584,22.55,-7.48,1.04,
34938,1661550344883,-0.9309,-0.4097,-0.3148,16.75,-14.41,0.31,
34939,1661550344883,-1.1155,-0.2466,-0.1918,11.05,-16.03,-1.89,
34940,1661550344884,-1.1048,-0.1763,0.3966,12.54,-8.75,-0.79,
34941,1661550344884,-1.2171,-0.2627,-0.1488,13.75,-17.8,4.59,
34942,1661550344885,-1.222,-0.0386,0.2951,11.26,-3.0,1.94,
34943,1661550344885,-1.2508,0.0581,0.5748,7.95,-12.04,1.66,
34944,1661550344886,-1.2659,0.0786,0.1227,9.76,-13.07,-2.61,
34945,1661550344886,-1.1585,-0.0078,0.0958,10.54,-14.17,-1.25,
34946,1661550344886,-1.2908,0.1118,0.3146,12.46,1.4,-0.61,
34947,1661550344888,-1.26,0.2729,0.3981,12.46,3.43,-3.07,
34948,1661550344888,-1.1936,0.1792,-0.0565,11.35,-5.79,2.67,
34949,1661550344888,-1.1585,0.2861,-0.0555,8.54,-7.31,-1.52,
34950,1661550344889,-1.1326,0.2642,0.1486,7.14,-6.55,3.04,
34951,1661550344889,-1.2576,0.1055,0.2521,9.25,-4.52,-3.25,
34952,1661550344890,-1.2649,0.2153,0.0499,9.15,-6.63,-4.71,
34953,1661550344890,-1.2098,0.1616,0.13,8.15,-0.71,-3.07,
34954,1661550344891,-1.115,0.0601,0.1945,9.44,-2.4,2.12,
34955,1661550344891,-1.135,0.1011,0.2462,9.75,7.75,2.95,
34956,1661550344892,-0.9847,0.0762,0.1608,10.95,5.72,5.49,
34957,1661550344892,-1.0833,0.1728,-0.0565,12.86,2.42,1.39,
34958,1661550344892,-1.0711,0.0952,0.0382,11.35,4.02,2.31,
34959,1661550344893,-1.0594,0.1216,0.3322,8.65,1.32,2.76,
34960,1661550344893,-1.0911,0.1641,-0.139,10.74,-4.69,-1.16,
34961,1661550344894,-0.9876,0.0176,-0.0819,11.55,-6.29,0.58,
34962,1661550344894,-1.1722,0.418,0.733,13.24,7.15,-5.08,
34963,1661550344895,-0.9021,0.3164,0.4415,16.34,-0.46,3.68,
34964,1661550344895,-0.9051,0.1846,-0.5096,17.04,-1.9,0.86,
34965,1661550344895,-0.9295,0.4717,0.589,13.24,20.26,2.4,
34966,1661550344896,-1.0603,0.2876,0.4069,16.16,7.32,-1.71,
34967,1661550344896,-0.844,0.4287,-0.5038,15.84,-2.92,-4.07,
34968,1661550344897,-0.7488,0.5273,-0.2074,19.76,5.98,-2.07,
34969,1661550344897,-0.7659,0.5391,0.4923,22.25,19.59,-3.8,
34970,1661550344899,-0.6697,0.5142,-0.4569,24.53,9.35,-3.34,
34971,1661550344899,-0.7224,0.3423,-0.7254,23.15,5.88,0.31,
34972,1661550344899,-0.8504,0.5068,0.3048,20.34,4.36,-4.16,
34973,1661550344899,-0.9163,0.3965,0.3205,24.34,-3.09,-0.33,
34974,1661550344899,-0.7806,0.2759,-0.3631,29.23,-1.64,-2.88,
34975,1661550344899,-0.6463,0.332,-0.4086,27.16,1.23,-3.98,
34976,1661550344900,-0.6761,0.207,0.297,21.96,13.33,-1.16,
34977,1661550344901,-0.7391,0.1118,-0.1727,23.83,-0.37,-4.81,
34978,1661550344901,-0.6946,-0.0205,-0.4691,27.45,1.9,-3.52,
34979,1661550344902,-0.9002,0.1265,0.1408,28.84,6.98,-3.98,
34980,1661550344902,-1.0086,0.2026,0.2648,21.04,8.51,-4.07,
34981,1661550344903,-0.7942,-0.1563,-0.2933,23.24,-4.95,-3.16,
34982,1661550344903,-0.93,-0.0244,-0.4735,21.24,-17.13,-5.9,
34983,1661550344904,-0.8465,-0.0508,0.2062,30.33,-5.19,3.5,
34984,1661550344904,-0.9612,-0.063,0.151,27.05,-4.69,-0.06,
34985,1661550344905,-0.8782,0.0107,-0.0482,21.24,-3.84,-0.79,
34986,1661550344905,-0.9627,-0.1553,-0.1,14.23,-19.23,0.76,
34987,1661550344906,-1.0008,0.0371,0.2936,20.14,-7.56,-4.35,
34988,1661550344906,-0.9329,0.0283,0.2741,28.14,-5.03,-0.43,
34989,1661550344906,-0.9583,-0.0396,-0.3612,25.94,4.62,0.58,
34990,1661550344907,-1.0154,0.0488,0.0104,20.45,4.62,-3.43,
34991,1661550344907,-1.0979,-0.0801,0.2516,19.13,5.38,-1.16,
34992,1661550344908,-1.0198,0.105,-0.1053,19.24,-12.04,-8.09,
34993,1661550344908,-0.9178,-0.0527,-0.6185,21.13,-18.9,-2.61,
34994,1661550344908,-1.1184,-0.1724,0.1452,9.14,-6.63,-1.43,
34995,1661550344909,-1.1292,0.0913,0.298,8.54,-7.65,2.58,
34996,1661550344909,-1.1092,-0.0864,-0.3485,13.12,-8.75,-5.35,
34997,1661550344910,-1.219,0.0322,0.1784,16.74,-7.22,-0.79,
34998,1661550344911,-1.3099,-0.1299,0.7169,13.04,1.15,-1.34,
34999,1661550344911,-1.2058,-0.1094,0.3893,6.74,-6.89,-4.07,
35000,1661550344912,-1.2391,-0.0107,-0.2928,5.75,-12.14,-4.26,
35001,1661550344912,-1.199,-0.044,0.528,9.25,-7.05,-2.53,
35002,1661550344912,-1.4353,0.1318,0.6124,14.66,-6.63,-3.61,
35003,1661550344912,-1.013,-0.0957,-0.2806,19.04,-7.15,-0.98,
35004,1661550344913,-1.2664,-0.0044,0.1232,11.14,-7.39,-1.62,
35005,1661550344913,-1.1438,-0.0606,0.6012,9.86,1.9,0.49,
35006,1661550344914,-1.1131,-0.169,0.1398,9.86,-18.22,0.86,
35007,1661550344914,-1.2391,0.0879,-0.1708,11.46,-5.28,-1.16,
35008,1661550344915,-1.0359,0.0918,0.5524,11.06,-8.15,3.04,
35009,1661550344916,-1.2224,0.1509,0.2521,9.55,-5.88,0.67,
35010,1661550344916,-0.9661,0.125,-0.0003,10.76,-3.16,1.85,
35011,1661550344917,-1.1907,0.021,0.0006,8.96,-2.92,-0.15,
35012,1661550344917,-1.0125,0.3315,0.4689,11.93,11.13,-2.26,
35013,1661550344917,-0.9275,0.4204,0.0119,11.96,8.42,2.49,
35014,1661550344918,-0.8152,0.3633,-0.3207,8.74,5.88,1.22,
35015,1661550344918,-0.991,0.4897,-0.0531,5.34,-0.71,-0.43,
35016,1661550344919,-1.0774,0.4287,0.4425,7.34,-1.81,-1.8,
35017,1661550344919,-0.9715,0.4297,-0.1546,13.75,-9.85,1.3,
35018,1661550344920,-0.948,0.4834,-0.0311,15.84,5.88,2.58,
35019,1661550344920,-0.9807,0.3779,0.4357,18.55,18.4,-0.43,
35020,1661550344921,-0.9261,0.3633,0.2096,17.06,13.16,1.85,
35021,1661550344921,-0.803,0.334,-0.1127,18.14,9.94,-3.07,
35022,1661550344921,-0.886,0.3242,0.1784,17.35,-0.46,0.95,
35023,1661550344922,-0.8807,0.2339,0.0568,20.54,0.73,-0.61,
35024,1661550344922,-0.8338,0.1977,-0.2982,24.14,3.93,-0.15,
35025,1661550344923,-0.8352,0.2969,-0.2108,24.03,15.19,3.59,
35026,1661550344923,-0.6873,0.1416,-0.0453,22.34,9.68,1.39,
35027,1661550344924,-0.907,0.081,-0.2362,16.45,-1.56,0.95,
35028,1661550344924,-0.826,0.0835,-0.1859,21.13,-8.15,-0.06,
35029,1661550344925,-0.8714,0.0737,-0.2005,27.75,-10.69,0.03,
35030,1661550344925,-0.6209,0.3105,0.2516,28.44,9.68,-1.16,
35031,1661550344925,-0.6682,0.2925,0.1295,22.95,4.79,1.13,
35032,1661550344926,-0.6756,0.1973,-0.4256,20.93,0.9,1.04,
35033,1661550344927,-0.7635,0.2183,-0.0853,21.25,-3.0,-4.71,
35034,1661550344927,-0.8997,0.1694,0.3205,24.55,1.83,-1.07,
35035,1661550344927,-0.8455,0.5278,-0.3617,28.93,-0.54,-7.44,
35036,1661550344928,-0.6936,0.3286,-0.7001,27.74,-1.13,-4.16,
35037,1661550344928,-0.7967,0.2041,-0.1659,21.74,0.73,-8.54,
35038,1661550344929,-0.8382,0.352,0.2667,16.84,-5.19,-6.53,
35039,1661550344929,-0.9285,-0.0254,-0.2997,22.64,-14.41,-7.44,
35040,1661550344930,-0.9373,0.2036,-0.0008,29.94,-2.92,-7.44,
35041,1661550344930,-0.9759,-0.0117,0.2511,23.95,3.52,-4.62,
35042,1661550344931,-0.8987,-0.1304,-0.2967,17.64,-5.96,-4.16,
35043,1661550344931,-0.969,-0.0303,-0.2616,21.44,-8.58,-4.71,
35044,1661550344932,-1.0096,-0.186,0.2941,24.64,-1.23,-1.98,
35045,1661550344932,-1.0833,-0.1597,-0.0873,23.15,-4.6,-7.44,
35046,1661550344932,-0.9764,-0.3154,-0.3026,18.54,-5.62,-2.88,
35047,1661550344933,-1.2181,-0.1851,0.236,17.94,-7.39,-4.99,
35048,1661550344934,-0.969,-0.3569,-0.182,20.75,-14.0,-0.43,
35049,1661550344934,-1.1175,-0.2695,-0.1908,14.04,-11.97,-2.35,
35050,1661550344934,-1.1004,-0.1099,0.4606,8.25,-10.35,-2.44,
35051,1661550344935,-1.2366,-0.2363,-0.1004,12.04,-28.87,-2.17,
35052,1661550344935,-1.2337,-0.023,0.277,17.85,-3.09,2.85,
35053,1661550344936,-1.261,0.0063,0.4674,14.34,-5.7,1.57,
35054,1661550344936,-1.2903,0.0518,0.3366,12.34,1.57,-3.07,
35055,1661550344937,-1.1702,0.0859,0.1662,9.44,-5.96,-1.71,
35056,1661550344937,-1.2815,0.0845,0.1784,8.16,-10.95,-3.07,
35057,1661550344938,-1.2356,0.2856,0.3307,10.66,-12.21,-4.16,
35058,1661550344938,-1.1189,0.2393,0.3039,13.95,-9.25,-5.35,
35059,1661550344938,-1.1219,0.2305,0.0289,13.14,1.83,-2.97,
35060,1661550344939,-1.1678,0.2573,0.0714,7.84,-1.64,-6.8,
35061,1661550344939,-1.242,0.106,0.2741,5.95,2.25,-4.71,
35062,1661550344939,-1.2391,0.1992,0.0954,7.95,-5.79,-0.15,
35063,1661550344940,-1.1936,0.1768,0.0329,10.92,-1.3,-4.99,
35064,1661550344940,-1.138,0.0825,0.1369,13.55,-3.76,-2.61,
35065,1661550344941,-1.1458,0.0854,0.2106,13.15,0.47,-3.43,
35066,1661550344942,-0.9934,0.0937,0.0949,9.05,0.64,-3.52,
35067,1661550344942,-1.0813,0.1621,-0.0365,9.15,-0.71,0.76,
35068,1661550344943,-1.0799,0.1074,0.0368,12.04,5.29,2.49,
35069,1661550344943,-1.0589,0.0727,0.2096,10.94,-0.97,2.67,
35070,1661550344943,-1.094,0.1435,-0.0775,13.55,-0.04,4.78,
35071,1661550344944,-1.0247,0.0332,0.0626,10.85,-7.73,3.68,
35072,1661550344944,-1.2039,0.2637,0.4039,13.84,-0.71,3.31,
35073,1661550344945,-0.9475,0.3398,0.4328,14.34,-3.76,2.67,
35074,1661550344945,-0.9358,0.2119,-0.3168,17.13,-7.99,2.21,
35075,1661550344946,-0.9466,0.4819,0.5045,15.44,18.92,1.66,
35076,1661550344946,-1.034,0.2685,0.2916,16.95,10.97,6.23,
35077,1661550344947,-0.8997,0.3071,-0.1473,19.24,10.37,4.78,
35078,1661550344947,-0.7693,0.625,-0.1268,20.14,9.61,5.68,
35079,1661550344947,-0.7718,0.481,0.1456,20.26,11.64,0.76,
35080,1661550344948,-0.7098,0.5439,-0.3866,21.83,5.72,6.14,
35081,1661550344948,-0.7449,0.3486,-0.4994,22.64,2.25,3.86,
35082,1661550344949,-0.8064,0.3584,-0.1527,21.74,2.42,1.76,
35083,1661550344949,-0.9085,0.3696,0.1383,22.03,-3.5,-0.15,
35084,1661550344950,-0.7996,0.3467,-0.1473,24.73,-0.46,-1.52,
35085,1661550344950,-0.6761,0.2529,-0.3797,27.94,-3.09,-0.79,
35086,1661550344950,-0.6746,0.2153,0.1505,27.83,17.05,-1.71,
35087,1661550344951,-0.6429,0.1914,0.2477,26.14,16.7,-1.07,
35088,1661550344951,-0.7737,0.0444,-0.3529,19.83,-0.46,-2.07,
35089,1661550344951,-0.6507,0.0425,-0.3714,21.76,-7.56,-0.98,
35090,1661550344953,-1.0262,0.0986,0.1583,27.43,-2.23,-1.52,
35091,1661550344953,-0.825,-0.0747,-0.1981,31.23,1.73,-2.35,
35092,1661550344954,-0.9671,-0.1148,-0.5184,24.44,-9.42,-1.98,
35093,1661550344954,-0.8699,-0.0283,0.2594,21.44,-8.32,-1.98,
35094,1661550344954,-0.8064,-0.0557,0.3727,21.36,-19.57,-2.17,
35095,1661550344955,-0.97,0.0776,-0.0047,27.74,-8.58,0.76,
35096,1661550344955,-0.9495,-0.1021,-0.0697,22.64,-4.95,1.85,
35097,1661550344955,-0.9949,0.0654,0.3497,16.86,2.09,-1.62,
35098,1661550344956,-0.9451,0.0151,0.1471,17.64,-4.35,-3.98,
35099,1661550344956,-0.9754,0.0029,-0.3363,23.54,-10.01,-5.9,
35100,1661550344956,-1.0174,0.0727,0.004,25.45,-3.0,-5.26,
35101,1661550344957,-1.0061,-0.0425,0.1115,23.16,1.4,-4.53,
35102,1661550344957,-1.0017,0.1279,-0.2294,19.26,-6.05,-7.26,
35103,1661550344959,-0.9651,-0.0264,-0.3426,14.65,-12.9,-7.99,
35104,1661550344959,-1.0794,-0.1499,0.1139,15.55,-15.1,-3.07,
35105,1661550344959,-1.0838,0.0293,0.1759,13.37,-11.97,-5.17,
35106,1661550344960,-1.1604,-0.1226,-0.1068,9.84,-6.89,-4.53,
35107,1661550344960,-1.199,0.0229,0.1852,10.54,-2.32,-8.36,
35108,1661550344961,-1.2683,-0.1904,0.5119,11.75,4.36,-7.08,
35109,1661550344961,-1.1658,-0.1216,0.3185,13.26,-1.23,-2.53,
35110,1661550344962,-1.2542,0.0317,-0.1249,11.24,-9.01,-6.71,
35111,1661550344962,-1.1697,-0.1167,0.3654,7.84,-8.58,-6.9,
35112,1661550344963,-1.4046,0.1377,0.4957,9.96,-12.21,-8.54,
35113,1661550344963,-1.0403,-0.1372,-0.2206,14.77,-14.49,-0.15,
35114,1661550344964,-1.2557,-0.0527,0.0441,12.25,-7.99,-6.09,
35115,1661550344964,-1.1946,-0.0093,0.65,5.55,5.21,-4.81,
35116,1661550344965,-1.1336,-0.1357,0.2409,8.04,-16.53,-0.88,
35117,1661550344965,-1.241,0.0664,-0.1742,7.95,-9.85,-0.33,
35118,1661550344966,-1.0486,0.145,0.6188,11.06,-9.85,1.39,
35119,1661550344966,-1.199,0.0918,0.2487,9.14,-6.8,2.4,
35120,1661550344966,-1.0086,0.2207,0.0231,12.34,-3.26,2.12,
35121,1661550344967,-1.1961,0.1055,0.1051,13.84,-3.93,0.31,
35122,1661550344967,-1.0315,0.3057,0.4406,10.24,8.01,-0.15,
35123,1661550344968,-0.8938,0.4297,-0.0809,12.25,10.2,-0.61,
35124,1661550344968,-0.8538,0.2744,-0.225,8.85,7.41,-2.61,
35125,1661550344969,-0.9812,0.5215,0.3517,8.94,3.35,-4.07,
35126,1661550344969,-1.0559,0.4526,0.3849,9.66,-1.9,-2.7,
35127,1661550344969,-0.9641,0.3599,-0.1473,12.45,-10.27,-2.44,
35128,1661550344970,-0.9148,0.5229,0.0089,18.25,2.67,-1.8,
35129,1661550344970,-0.9734,0.3198,0.3927,18.34,16.03,1.66,
35130,1661550344971,-0.9373,0.2798,0.1769,19.55,20.01,2.21,
35131,1661550344971,-0.8333,0.3364,-0.1371,18.46,19.08,-1.52,
35132,1661550344972,-0.8938,0.3081,0.2233,14.85,7.49,-2.53,
35133,1661550344972,-0.9358,0.3071,0.1002,21.44,-2.57,-2.26,
35134,1661550344973,-0.8162,0.1929,-0.2987,23.65,-1.06,2.76,
35135,1661550344973,-0.7972,0.2837,-0.0179,28.53,16.54,1.76,
35136,1661550344974,-0.6858,0.1768,-0.0003,24.55,10.87,7.78,
35137,1661550344974,-0.8865,0.103,-0.2088,20.75,0.9,9.6,
35138,1661550344974,-0.8255,0.1157,-0.2157,24.03,-9.25,6.23,
35139,1661550344975,-0.865,0.0962,-0.1903,25.34,-14.17,11.52,
35140,1661550344975,-0.6526,0.3452,0.2526,25.04,10.11,8.06,
35141,1661550344976,-0.6814,0.3179,0.0622,23.94,1.23,7.05,
35142,1661550344976,-0.68,0.1694,-0.4784,22.44,1.99,3.68,
35143,1661550344977,-0.7752,0.2529,-0.0223,22.86,0.47,0.86,
35144,1661550344977,-0.9016,0.1846,0.2423,22.34,5.63,4.59,
35145,1661550344978,-0.846,0.4761,-0.3817,24.84,0.3,-4.81,
35146,1661550344978,-0.7,0.3354,-0.5711,27.05,-1.9,-3.8,
35147,1661550344978,-0.8328,0.2114,-0.0711,26.73,0.9,-11.0,
35148,1661550344979,-0.8724,0.25,0.1032,23.83,-6.8,-5.54,
35149,1661550344979,-0.9798,0.041,-0.2372,23.85,-11.62,-4.81,
35150,1661550344980,-0.9515,0.1899,0.0617,29.36,-1.23,-4.99,
35151,1661550344980,-0.991,-0.0357,0.1305,28.44,1.49,-6.0,
35152,1661550344981,-0.8753,-0.1055,-0.0677,22.14,-0.46,-7.17,
35153,1661550344981,-0.9392,-0.0176,-0.2181,16.84,-4.26,-6.62,
35154,1661550344982,-0.949,-0.187,0.2218,20.86,-1.39,-7.35,
35155,1661550344982,-1.0887,-0.1523,-0.1131,25.83,-10.87,-5.54,
35156,1661550344983,-0.9949,-0.2979,-0.2352,22.86,-5.45,-2.61,
35157,1661550344983,-1.2444,-0.2026,0.2287,17.35,-9.08,-1.8,
35158,1661550344983,-1.0047,-0.4287,-0.1004,16.34,-14.76,-0.7,
35159,1661550344983,-1.0994,-0.2769,-0.1219,11.75,-15.1,4.32,
35160,1661550344985,-1.1014,-0.1069,0.3883,9.25,-5.19,3.22,
35161,1661550344985,-1.2493,-0.2241,-0.0277,9.64,-20.09,4.69,
35162,1661550344986,-1.2576,-0.0991,-0.0155,12.74,-13.31,0.31,
35163,1661550344986,-1.2371,-0.0024,0.3996,12.94,-7.73,4.14,
35164,1661550344986,-1.2908,0.0288,0.3034,12.34,4.11,2.12,
35165,1661550344986,-1.1751,0.1455,0.133,10.36,1.99,-1.25,
35166,1661550344986,-1.2854,0.0576,-0.0423,8.76,-4.69,1.76,
35167,1661550344987,-1.1839,0.2642,0.1662,9.14,-12.64,-1.34,
35168,1661550344987,-1.2112,0.2695,0.4889,10.34,-11.71,-0.24,
35169,1661550344988,-1.1624,0.2236,0.0983,13.04,-8.32,-4.44,
35170,1661550344988,-1.1741,0.2544,-0.0628,13.64,-3.0,-1.43,
35171,1661550344989,-1.2493,0.1445,0.4865,8.86,11.38,-4.07,
35172,1661550344989,-1.1995,0.1665,0.1315,6.24,1.06,-2.26,
35173,1661550344990,-1.1785,0.1567,-0.1048,6.36,0.13,-4.99,
35174,1661550344990,-1.1219,0.1396,0.1261,14.23,-0.97,0.95,
35175,1661550344990,-1.1868,0.0581,0.3214,14.94,-5.53,1.13,
35176,1661550344992,-0.9632,0.022,-0.0414,14.74,-6.12,-1.25,
35177,1661550344992,-1.0398,0.0352,-0.1019,11.05,-4.52,-2.88,
35178,1661550344993,-1.1048,0.106,0.1007,10.56,3.86,-0.61,
35179,1661550344993,-1.0286,-0.0005,0.1373,8.74,-1.23,2.31,
35180,1661550344994,-1.0808,0.1392,-0.0404,12.74,-0.04,3.77,
35181,1661550344994,-0.9964,0.103,0.2345,10.45,-3.5,8.24,
35182,1661550344995,-1.1556,0.3857,0.5324,11.84,-1.56,8.88,
35183,1661550344995,-0.9651,0.3198,0.3434,11.75,-5.53,9.6,
35184,1661550344995,-0.9549,0.2725,-0.1649,11.66,-1.81,4.78,
35185,1661550344996,-0.951,0.4985,0.3307,16.94,12.4,4.41,
35186,1661550344996,-1.0218,0.2837,0.1832,22.34,8.94,4.23,
35187,1661550344997,-0.9339,0.3359,-0.0419,22.14,14.93,3.22,
35188,1661550344997,-0.8094,0.6846,-0.0663,22.54,13.58,0.31,
35189,1661550344997,-0.7615,0.4126,-0.1185,20.14,11.9,1.3,
35190,1661550344998,-0.7161,0.5771,-0.223,20.93,5.46,-2.44,
35191,1661550344999,-0.7371,0.3862,-0.3304,20.84,3.09,-2.53,
35192,1661550344999,-0.8274,0.3574,-0.077,24.93,-3.93,-2.26,
35193,1661550345000,-0.9241,0.3301,0.0499,26.24,-7.15,-3.43,
35194,1661550345000,-0.8103,0.3452,0.0963,26.05,6.39,-5.54,
35195,1661550345001,-0.6936,0.1719,-0.4335,25.54,3.76,1.04,
35196,1661550345001,-0.6385,0.1494,-0.0018,24.73,21.36,-3.07,
35197,1661550345001,-0.72,0.0771,0.1242,26.14,19.16,-1.16,
35198,1661550345002,-0.7581,0.0601,-0.2401,26.53,4.28,-1.52,
35199,1661550345002,-0.638,0.0117,-0.5609,24.03,-9.08,0.95,
35200,1661550345003,-1.0076,0.1035,0.1925,22.25,2.83,-2.44,
35201,1661550345003,-0.8225,-0.0415,-0.0868,25.76,-0.37,1.76,
35202,1661550345004,-0.9163,-0.146,-0.6239,23.36,-9.94,-0.52,
35203,1661550345004,-0.8592,0.0435,0.4049,19.35,-7.15,3.13,
35204,1661550345005,-0.8011,0.0195,0.5192,19.55,-14.24,-3.16,
35205,1661550345005,-0.9622,0.0483,-0.1556,25.94,-13.14,-1.71,
35206,1661550345005,-0.9666,-0.0552,-0.0585,24.15,-3.76,-2.26,
35207,1661550345006,-1.0154,0.1001,0.4777,22.73,8.75,-2.88,
35208,1661550345007,-0.8929,0.0405,0.0377,23.04,-2.23,-1.34,
35209,1661550345007,-0.9934,-0.0049,-0.3807,22.64,-5.12,-5.17,
35210,1661550345008,-0.9871,0.1177,0.088,23.25,-0.87,-5.17,
35211,1661550345008,-0.9651,0.0146,0.1334,21.13,-3.93,-4.16,
35212,1661550345008,-1.0081,0.0508,-0.3324,17.36,-11.21,-3.8,
35213,1661550345009,-0.9832,-0.0718,-0.329,17.74,-15.43,-0.7,
35214,1661550345009,-1.1131,-0.1523,0.192,13.24,-8.08,-2.26,
35215,1661550345010,-1.1136,-0.0166,0.1378,10.86,-11.37,-3.43,
35216,1661550345010,-1.1595,-0.1465,-0.0814,14.34,-7.91,-9.09,
35217,1661550345011,-1.1668,-0.0127,0.2702,11.75,-3.42,-3.52,
35218,1661550345011,-1.2351,-0.207,0.3937,11.55,5.21,-6.0,
35219,1661550345012,-1.2268,0.001,0.0407,10.04,1.23,-1.89,
35220,1661550345012,-1.2644,0.0425,-0.0555,9.05,-4.26,-3.71,
35221,1661550345012,-1.1409,-0.1499,0.2858,6.86,-5.12,-0.98,
35222,1661550345012,-1.4285,0.085,0.358,11.64,-15.17,-1.25,
35223,1661550345013,-1.0677,-0.1338,-0.1014,16.05,-14.58,-0.24,
35224,1661550345013,-1.2581,-0.0498,0.0163,14.16,-16.61,-0.33,
35225,1661550345013,-1.1741,0.0454,0.567,7.55,2.09,0.49,
35226,1661550345014,-1.1214,-0.104,0.3102,6.94,-15.6,7.23,
35227,1661550345014,-1.2571,0.1196,-0.0502,7.95,-9.01,3.13,
35228,1661550345016,-1.0794,0.1518,0.5158,10.05,-6.29,7.23,
35229,1661550345016,-1.2156,0.0908,0.2477,11.26,-1.47,5.22,
35230,1661550345017,-1.0218,0.2759,0.171,10.65,-0.2,4.96,
35231,1661550345017,-1.1682,0.146,0.1212,9.55,-8.75,8.79,
35232,1661550345018,-0.9871,0.2788,0.1666,10.85,-2.49,8.15,
35233,1661550345018,-0.9026,0.4731,-0.0043,9.25,0.8,4.78,
35234,1661550345018,-0.8963,0.2524,-0.1078,7.64,5.72,6.32,
35235,1661550345019,-0.9837,0.374,-0.0213,10.45,3.6,6.14,
35236,1661550345019,-1.0208,0.4536,0.2892,10.76,9.44,1.66,
35237,1661550345020,-0.9856,0.3999,0.0358,13.04,0.9,1.39,
35238,1661550345020,-0.9563,0.498,0.0109,13.76,-6.22,1.66,
35239,1661550345020,-0.9915,0.4233,0.2853,16.34,-0.13,0.67,
35240,1661550345021,-0.9441,0.2817,0.2199,13.04,1.15,2.31,
35241,1661550345021,-0.8899,0.332,-0.0838,18.84,9.78,0.95,
35242,1661550345022,-0.8865,0.2959,0.1779,22.75,13.0,4.59,
35243,1661550345022,-0.9871,0.3843,0.2926,24.46,19.16,-0.7,
35244,1661550345023,-0.7395,0.229,-0.0941,21.04,6.05,1.13,
35245,1661550345023,-0.8665,0.2153,-0.3045,19.83,-0.8,1.94,
35246,1661550345024,-0.6722,0.1782,0.0695,24.53,5.38,1.22,
35247,1661550345024,-0.8997,0.1401,-0.1283,26.03,1.57,3.4,
35248,1661550345024,-0.8841,0.1631,-0.2093,23.94,4.95,-0.24,
35249,1661550345025,-0.742,0.0581,-0.2152,22.15,-3.33,1.85,
35250,1661550345025,-0.6951,0.3027,0.2394,19.45,-0.63,-4.35,
35251,1661550345026,-0.6541,0.3379,-0.0731,26.03,-0.46,-4.71,
35252,1661550345026,-0.6917,0.0889,-0.5384,28.14,2.5,0.58,
35253,1661550345027,-0.74,0.2759,-0.2806,29.34,10.87,-5.17,
35254,1661550345027,-0.823,0.3213,0.3629,22.95,4.53,-1.16,
35255,1661550345028,-0.7234,0.4243,-0.3172,23.83,-4.86,-5.35,
35256,1661550345028,-0.6975,0.3486,-0.5516,27.65,-6.29,-2.07,
35257,1661550345029,-0.8626,0.1914,0.0519,27.63,0.9,-4.35,
35258,1661550345029,-0.8694,0.2739,-0.0462,25.94,-1.23,-4.44,
35259,1661550345029,-0.8645,0.0937,-0.2499,23.44,-10.27,-5.08,
35260,1661550345029,-0.9876,0.1279,-0.0126,28.24,-5.7,-2.35,
35261,1661550345031,-0.9515,0.064,0.2394,25.34,-1.73,-0.52,
35262,1661550345031,-0.8714,-0.1636,-0.1566,25.83,3.93,-1.8,
35263,1661550345032,-0.9417,-0.0361,-0.18,18.95,-4.02,-1.8,
35264,1661550345032,-0.9041,-0.1729,0.2316,20.34,1.66,-3.98,
35265,1661550345032,-1.095,-0.1445,-0.097,23.34,-5.12,0.4,
35266,1661550345033,-1.0379,-0.355,-0.2445,26.84,-9.25,0.12,
35267,1661550345033,-1.1385,-0.3408,-0.0541,18.84,-16.03,2.76,
35268,1661550345033,-1.2391,-0.1909,0.2438,17.35,-14.58,-1.98,
35269,1661550345033,-0.8509,-0.3691,-0.1488,13.44,-21.18,1.48,
35270,1661550345034,-1.1272,-0.0986,0.0734,12.65,-5.53,-1.8,
35271,1661550345034,-1.0349,-0.1958,0.3073,11.64,-5.03,3.13,
35272,1661550345036,-1.2449,-0.0684,0.0768,13.35,-5.53,-1.62,
35273,1661550345036,-1.1858,0.0195,0.2975,12.65,-7.22,1.57,
35274,1661550345037,-1.2288,0.0093,0.3512,12.45,-10.44,-2.53,
35275,1661550345037,-1.2049,0.1943,0.3214,10.16,-3.0,-2.61,
35276,1661550345037,-1.0857,0.1533,-0.0628,9.35,-9.76,-3.98,
35277,1661550345038,-1.137,0.1977,0.0587,9.84,-4.77,-8.09,
35278,1661550345038,-1.2332,0.2881,0.6046,12.04,-3.0,-0.24,
35279,1661550345038,-1.1678,0.1387,0.0612,12.54,-10.11,-8.45,
35280,1661550345038,-1.1214,0.1499,-0.2015,11.84,-15.26,-5.26,
35281,1661550345039,-1.1624,0.167,0.3034,8.65,4.62,-9.09,
35282,1661550345039,-1.2488,0.1899,0.5333,8.54,1.83,-3.8,
35283,1661550345040,-1.1531,0.0679,-0.2274,7.55,-2.23,-2.35,
35284,1661550345040,-1.1106,0.1392,0.1403,7.96,2.09,-5.81,
35285,1661550345040,-1.159,0.0571,0.4103,11.44,2.5,1.3,
35286,1661550345042,-1.1136,0.0234,0.1437,16.26,1.83,2.85,
35287,1661550345042,-1.0286,0.041,-0.2084,13.24,-6.29,-0.88,
35288,1661550345043,-1.1321,0.1025,0.2658,9.44,-2.57,-0.33,
35289,1661550345043,-0.9729,-0.0357,0.3278,7.55,-5.36,-0.24,
35290,1661550345044,-1.01,0.0605,-0.0487,11.35,-6.46,1.94,
35291,1661550345044,-0.9583,0.0874,0.193,14.14,-3.76,4.87,
35292,1661550345045,-1.1941,0.3227,0.4381,13.56,-2.66,1.04,
35293,1661550345045,-0.9978,0.2974,0.2697,13.84,6.98,4.59,
35294,1661550345045,-0.8138,0.271,0.0636,8.24,6.14,1.22,
35295,1661550345046,-0.9617,0.5439,0.1906,11.14,11.47,0.4,
35296,1661550345046,-0.9016,0.4292,0.2184,13.96,8.85,-3.34,
35297,1661550345047,-0.9085,0.331,-0.0526,20.34,2.67,-1.43,
35298,1661550345047,-0.8128,0.6811,-0.0091,22.84,7.15,-0.52,
35299,1661550345048,-0.6766,0.626,-0.1781,25.83,7.58,0.58,
35300,1661550345048,-0.6575,0.4883,-0.2713,20.03,14.51,2.31,
35301,1661550345049,-0.6722,0.5459,-0.1532,18.25,11.38,0.86,
35302,1661550345049,-0.8147,0.2676,-0.2596,18.03,2.42,0.67,
35303,1661550345050,-0.8221,0.3442,-0.1981,23.44,-8.66,-4.16,
35304,1661550345050,-0.8279,0.3813,0.194,30.35,3.76,-1.71,
35305,1661550345050,-0.7181,0.1792,-0.0487,29.55,5.55,-0.06,
35306,1661550345051,-0.7078,0.1362,-0.3944,25.76,5.46,-0.79,
35307,1661550345051,-0.6321,0.1235,0.2345,23.24,16.89,-0.88,
35308,1661550345051,-0.7513,0.104,-0.1849,22.54,10.2,-1.52,
35309,1661550345051,-0.7288,0.1094,-0.5375,26.63,4.69,0.22,
35310,1661550345053,-0.8396,-0.0635,-0.246,23.24,-5.96,-3.8,
35311,1661550345053,-0.9964,0.1279,0.2438,22.75,-7.65,-1.16,
35312,1661550345054,-0.8177,-0.2036,-0.5677,22.93,-24.91,1.66,
35313,1661550345054,-0.9305,0.0752,-0.098,24.14,2.33,-0.06,
35314,1661550345055,-0.7747,0.0688,0.485,23.65,1.49,4.5,
35315,1661550345055,-0.9075,0.0415,0.1271,21.56,-3.84,-2.53,
35316,1661550345056,-0.9207,-0.0132,-0.181,20.84,-11.62,-0.88,
35317,1661550345056,-1.0047,-0.0215,0.2633,21.13,-10.69,-2.53,
35318,1661550345057,-1.0301,0.1313,0.3605,27.34,0.04,-2.97,
35319,1661550345057,-0.9417,0.0527,-0.2757,25.94,1.57,1.13,
35320,1661550345057,-0.9358,0.1113,-0.1629,22.95,3.35,-6.09,
35321,1661550345058,-0.9661,-0.001,0.1593,15.36,0.47,-3.07,
35322,1661550345058,-1.0716,-0.0557,-0.0438,17.56,-9.94,-6.62,
35323,1661550345059,-1.0511,-0.0181,-0.3929,22.23,-13.74,-6.53,
35324,1661550345059,-1.011,-0.1338,-0.0043,18.34,-11.88,-3.07,
35325,1661550345060,-1.1551,-0.0684,0.3283,10.54,-9.94,-3.89,
35326,1661550345060,-1.1414,-0.1572,-0.0228,12.94,-10.18,-0.43,
35327,1661550345061,-1.1121,-0.019,0.1676,16.54,2.76,-1.25,
35328,1661550345061,-1.243,-0.0708,0.3458,13.55,-2.74,-0.43,
35329,1661550345062,-1.1126,-0.1118,0.1764,7.55,-8.41,0.95,
35330,1661550345062,-1.2454,-0.0161,0.1002,8.24,-18.47,-3.61,
35331,1661550345062,-1.2835,-0.0606,0.1207,14.94,-5.19,0.03,
35332,1661550345063,-1.2376,-0.0415,0.2335,14.85,-4.6,0.31,
35333,1661550345063,-1.3206,0.0234,0.172,15.44,2.83,0.58,
35334,1661550345064,-1.115,-0.1846,-0.0003,13.56,-5.03,4.41,
35335,1661550345064,-1.3138,0.1392,0.3834,9.46,-5.03,-0.24,
35336,1661550345065,-1.1722,0.0591,0.4821,8.54,-11.04,1.94,
35337,1661550345065,-1.243,-0.0786,0.0582,9.64,-15.26,-3.34,
35338,1661550345066,-1.1653,0.2251,0.3429,11.14,4.19,-1.98,
35339,1661550345066,-1.2527,-0.0171,0.2687,9.35,0.97,3.31,
35340,1661550345067,-1.1604,0.3076,0.2199,8.86,4.62,-0.7,
35341,1661550345067,-1.0652,0.3711,0.2682,10.94,5.88,-2.97,
35342,1661550345068,-1.0403,0.0268,-0.0414,13.75,2.76,1.48,
35343,1661550345068,-1.0447,0.4434,0.0348,14.04,3.18,-0.88,
35344,1661550345068,-1.0149,0.3301,0.1027,9.64,1.49,2.12,
35345,1661550345069,-0.9231,0.2515,0.006,7.84,-1.06,-2.44,
35346,1661550345069,-0.992,0.416,-0.0526,6.24,-7.65,-0.61,
35347,1661550345070,-1.0891,0.4512,0.3087,11.15,-0.63,-1.52,
35348,1661550345070,-1.0081,0.4072,0.0617,19.64,7.75,1.76,
35349,1661550345071,-0.9471,0.4141,-0.0223,18.45,18.06,-1.52,
35350,1661550345071,-0.9075,0.2944,0.2497,14.23,17.47,1.04,
35351,1661550345071,-0.9891,0.3735,0.1681,14.94,8.51,-4.81,
35352,1661550345072,-0.7141,0.2935,-0.1698,16.16,-1.9,-3.16,
35353,1661550345072,-0.9759,0.3862,0.1344,22.23,-1.3,-1.52,
35354,1661550345073,-0.7581,0.2153,-0.0589,29.74,7.58,-3.71,
35355,1661550345073,-0.8245,0.1475,-0.368,28.04,3.6,6.41,
35356,1661550345074,-0.7635,0.2363,-0.1336,22.44,10.04,1.66,
35357,1661550345074,-0.6609,0.1904,0.0997,19.74,-0.54,6.5,
35358,1661550345075,-0.8597,0.1885,-0.3128,21.35,-5.79,3.95,
35359,1661550345075,-0.743,0.0332,-0.161,24.84,-10.01,1.85,
35360,1661550345075,-0.9104,0.105,0.1369,24.84,5.79,3.31,
35361,1661550345076,-0.699,0.5234,0.3239,23.74,7.49,1.3,
35362,1661550345076,-0.6492,0.0786,-0.5873,26.46,-1.47,3.5,
35363,1661550345077,-0.7185,0.3564,-0.0594,23.34,4.36,0.4,
35364,1661550345077,-0.8055,0.4521,0.3082,25.24,11.04,-1.71,
35365,1661550345078,-0.8094,0.1763,-0.1498,28.64,0.56,-1.89,
35366,1661550345078,-0.8421,0.4292,-0.6166,26.93,-2.57,-3.25,
35367,1661550345079,-0.7605,0.231,-0.0316,24.14,-0.87,-0.79,
35368,1661550345079,-0.8885,0.2588,-0.016,24.46,-8.32,-7.35,
35369,1661550345080,-0.8719,0.1543,-0.3021,26.66,-7.48,-0.7,
35370,1661550345080,-0.9612,0.0732,0.1227,29.14,-0.8,-6.09,
35371,1661550345080,-0.9451,0.0864,0.2384,25.94,-1.06,-3.34,
35372,1661550345081,-0.9427,-0.0737,-0.0209,25.43,-3.93,-3.8,
35373,1661550345081,-0.9422,-0.1611,-0.1893,23.83,-7.56,0.58,
35374,1661550345082,-1.0393,-0.0508,0.1105,26.66,-0.71,1.48,
35375,1661550345083,-0.9759,-0.2153,0.1124,24.84,0.8,-3.25,
35376,1661550345083,-1.1082,-0.1934,-0.3119,23.04,-8.75,-0.79,
35377,1661550345083,-1.1062,-0.3403,-0.0848,19.64,-13.65,-2.35,
35378,1661550345084,-1.2625,-0.2197,0.2931,22.93,-11.88,1.39,
35379,1661550345084,-1.0462,-0.2852,0.1242,19.64,-9.25,2.21,
35380,1661550345085,-1.0994,-0.2559,-0.2352,15.15,-12.21,4.5,
35381,1661550345085,-1.0818,-0.1177,0.2985,9.05,-2.74,4.41,
35382,1661550345086,-1.2498,-0.1211,0.2169,10.95,-15.77,9.51,
35383,1661550345086,-1.2293,-0.0503,0.0368,11.55,-11.54,3.5,
35384,1661550345087,-1.263,0.0889,0.3483,12.85,-12.38,2.67,
35385,1661550345087,-1.3089,0.083,0.4435,10.94,5.63,1.3,
35386,1661550345087,-1.1751,0.1904,0.1232,13.64,2.09,-2.26,
35387,1661550345088,-1.2391,0.064,-0.2767,10.74,-6.46,2.21,
35388,1661550345088,-1.2791,0.2017,0.4313,8.44,-9.01,-3.16,
35389,1661550345089,-1.2229,0.227,0.4152,9.76,-8.41,2.49,
35390,1661550345089,-1.18,0.1641,0.0001,11.44,-11.8,-4.53,
35391,1661550345090,-1.1922,0.1689,-0.1068,10.15,-6.29,-4.35,
35392,1661550345090,-1.2683,0.1719,0.65,10.47,12.81,-1.07,
35393,1661550345091,-1.1482,0.0273,0.0036,10.95,2.67,-1.43,
35394,1661550345091,-1.0286,0.0952,-0.1317,9.66,5.88,-0.43,
35395,1661550345092,-1.1062,0.1357,0.1789,13.64,-0.13,1.48,
35396,1661550345092,-1.2361,0.0591,0.3644,12.24,-5.28,3.22,
35397,1661550345092,-0.9158,-0.0523,-0.2787,12.14,-13.83,-0.79,
35398,1661550345093,-1.1634,0.1016,0.0831,12.34,1.15,-0.79,
35399,1661550345094,-1.0076,-0.0459,0.3727,13.24,5.46,2.58,
35400,1661550345094,-1.0017,-0.0689,0.0827,11.26,-4.02,3.68,
35401,1661550345094,-1.0262,0.1435,0.026,8.15,1.15,3.77,
35402,1661550345095,-1.0017,0.1807,0.4455,8.85,-0.97,8.97,
35403,1661550345095,-1.1331,0.374,0.3395,9.64,-5.88,3.86,
35404,1661550345096,-0.9847,0.3174,0.2252,8.36,-5.96,8.52,
35405,1661550345096,-1.0066,0.333,0.1061,11.06,-0.04,4.32,
35406,1661550345097,-0.9666,0.5518,0.2604,16.46,8.75,-0.61,
35407,1661550345097,-0.9739,0.3091,-0.0472,20.05,6.22,2.49,
35408,1661550345097,-0.8069,0.686,-0.0433,19.56,16.54,0.49,
35409,1661550345098,-0.8333,0.7554,-0.0248,21.13,9.85,1.94,
35410,1661550345098,-0.7937,0.3887,-0.2543,21.64,5.55,-2.26,
35411,1661550345099,-0.7351,0.5723,-0.1498,22.05,0.97,-2.7,
35412,1661550345099,-0.7307,0.3921,-0.2093,22.35,4.19,-4.53,
35413,1661550345100,-0.8245,0.331,-0.1752,24.03,5.12,-1.98,
35414,1661550345100,-0.8938,0.3857,-0.0482,22.93,4.53,-6.09,
35415,1661550345100,-0.8099,0.2573,0.1115,25.83,7.41,-1.71,
35416,1661550345101,-0.7132,0.125,-0.4227,26.34,1.99,-4.35,
35417,1661550345101,-0.6897,0.1279,-0.1058,25.74,15.02,-2.7,
35418,1661550345102,-0.7215,0.0425,0.1559,21.44,12.31,-0.7,
35419,1661550345102,-0.719,0.1558,-0.4852,22.95,1.49,-3.8,
35420,1661550345103,-0.6194,0.0093,-0.5653,24.26,-8.58,-1.71,
35421,1661550345103,-1.0013,0.0166,0.0358,27.54,3.0,-3.34,
35422,1661550345104,-0.8299,0.0078,-0.014,29.43,-2.06,-3.89,
35423,1661550345104,-0.9231,-0.0947,-0.4867,24.24,-10.27,-3.52,
35424,1661550345105,-0.8938,0.144,0.2887,19.44,-8.32,-3.25,
35425,1661550345105,-0.9329,0.0415,0.1002,21.35,-14.0,-1.34,
35426,1661550345105,-0.9295,0.0518,-0.2411,26.24,-6.05,-2.53,
35427,1661550345106,-0.9212,-0.0034,-0.1468,24.93,-5.12,1.85,
35428,1661550345106,-1.0286,0.0435,0.5187,20.25,7.82,-1.8,
35429,1661550345107,-0.9075,0.2217,0.067,23.83,-3.76,-2.35,
35430,1661550345108,-0.969,-0.0405,-0.6293,25.14,-12.98,-6.62,
35431,1661550345108,-0.9803,0.0767,0.0451,23.94,0.13,-2.97,
35432,1661550345108,-1.0628,-0.0415,0.0993,21.64,-3.0,-0.98,
35433,1661550345109,-1.0286,-0.0571,-0.287,17.55,-15.1,-2.07,
35434,1661550345109,-1.0306,-0.0259,-0.3988,16.45,-16.61,-3.61,
35435,1661550345110,-1.1556,-0.1172,0.3463,15.84,-9.34,-3.98,
35436,1661550345110,-1.156,-0.1191,0.1691,14.45,-11.62,-2.61,
35437,1661550345111,-1.1375,-0.1582,-0.0492,13.14,-5.36,-2.61,
35438,1661550345111,-1.1648,-0.0674,0.2941,12.94,-0.87,-3.89,
35439,1661550345112,-1.1892,-0.1763,0.2599,13.35,0.9,-3.43,
35440,1661550345112,-1.2581,-0.0288,0.1129,11.64,-2.83,-3.52,
35441,1661550345113,-1.2932,-0.0815,0.1969,12.46,-7.91,-4.53,
35442,1661550345113,-1.139,-0.166,0.2233,12.45,-17.2,-3.25,
35443,1661550345114,-1.4046,0.0137,0.2042,12.54,-15.0,-3.52,
35444,1661550345114,-1.1336,-0.1074,0.2042,17.13,-11.04,-1.62,
35445,1661550345114,-1.2991,-0.0386,0.0656,9.25,-2.74,-2.79,
35446,1661550345115,-1.1604,0.0415,0.4782,8.45,0.39,-2.97,
35447,1661550345115,-1.2781,-0.0049,0.2028,8.35,-11.8,1.22,
35448,1661550345116,-1.1487,0.2217,0.3239,9.26,-3.26,-3.43,
35449,1661550345116,-1.0179,0.104,0.2726,13.55,-1.99,1.3,
35450,1661550345117,-1.156,0.082,0.2506,10.85,4.69,-4.71,
35451,1661550345117,-1.1009,0.4121,0.3239,15.14,9.18,-2.88,
35452,1661550345118,-1.0525,-0.0005,-0.1927,14.14,-4.43,-1.98,
35453,1661550345118,-1.0862,0.4268,0.0914,11.95,1.49,-6.18,
35454,1661550345118,-0.9646,0.5073,0.3341,10.65,3.26,2.76,
35455,1661550345119,-0.9637,0.2378,-0.015,13.24,-2.57,-1.43,
35456,1661550345119,-0.9891,0.3921,-0.1576,8.74,-8.41,1.94,
35457,1661550345120,-1.0799,0.479,0.4044,10.04,1.99,-6.09,
35458,1661550345120,-0.9729,0.3579,0.0163,16.25,-0.46,-0.43,
35459,1661550345121,-0.9593,0.3428,-0.1629,18.54,10.11,-2.61,
35460,1661550345121,-0.9202,0.2925,0.2072,17.94,19.92,-1.62,
35461,1661550345122,-1.0198,0.4072,0.2033,16.04,17.89,0.76,
35462,1661550345122,-0.7239,0.2275,-0.2904,17.44,2.59,-2.53,
35463,1661550345123,-0.9876,0.3721,0.1749,16.75,2.67,-3.98,
35464,1661550345123,-0.9593,0.3613,0.2907,23.54,1.9,-3.43,
35465,1661550345124,-0.8313,0.1255,-0.4159,28.64,-3.0,-2.26,
35466,1661550345124,-0.7254,0.2236,-0.159,26.14,10.97,0.22,
35467,1661550345124,-0.6712,0.2471,0.2794,20.14,6.48,0.22,
35468,1661550345125,-0.824,0.1885,-0.4794,19.36,-1.39,6.23,
35469,1661550345125,-0.823,0.0864,-0.6146,23.44,-7.48,4.96,
35470,1661550345126,-0.8724,0.1235,0.2116,25.04,8.75,3.5,
35471,1661550345126,-0.761,0.564,0.2872,29.04,12.4,-2.26,
35472,1661550345127,-0.6556,0.0513,-0.8143,27.04,0.9,-0.79,
35473,1661550345127,-0.8055,0.3623,-0.0384,22.03,7.32,-0.06,
35474,1661550345128,-0.7937,0.5171,0.5236,21.04,10.45,-3.25,
35475,1661550345128,-0.8069,0.1611,-0.182,21.64,-11.8,1.3,
35476,1661550345128,-0.8431,0.3857,-0.7152,27.43,-11.28,-2.53,
35477,1661550345129,-0.7449,0.2666,0.1413,23.74,3.35,-6.62,
35478,1661550345129,-0.8772,0.2485,0.0163,24.66,2.09,-4.9,
35479,1661550345130,-0.8963,0.083,-0.3578,26.93,-7.91,-2.79,
35480,1661550345130,-1.0017,-0.0049,-0.1346,24.64,-5.03,-2.07,
35481,1661550345131,-0.9373,0.0547,0.3346,27.74,-1.56,-0.98,
35482,1661550345131,-0.9798,-0.1123,-0.0765,26.24,-3.76,-2.07,
35483,1661550345132,-0.9207,-0.1582,-0.1761,21.74,-7.73,-1.07,
35484,1661550345132,-1.0081,-0.0757,0.1398,23.04,1.9,0.12,
35485,1661550345133,-0.9583,-0.2246,0.0446,24.86,-0.97,-0.61,
35486,1661550345133,-1.0843,-0.1626,-0.2826,24.03,-9.51,-0.33,
35487,1661550345133,-1.0725,-0.3648,-0.0223,18.74,-10.87,-0.61,
35488,1661550345133,-1.2669,-0.2256,0.297,18.14,-10.78,3.77,
35489,1661550345134,-1.0301,-0.251,0.1032,16.46,-12.98,3.59,
35490,1661550345134,-1.1023,-0.2266,-0.2425,14.16,-14.24,3.4,
35491,1661550345134,-1.095,-0.0308,0.3668,13.96,-6.22,-0.06,
35492,1661550345136,-1.2508,-0.1465,0.2321,15.14,-18.9,2.49,
35493,1661550345136,-1.2132,-0.0371,0.0812,14.45,-9.59,-5.26,
35494,1661550345137,-1.2786,0.1807,0.3654,12.34,-1.23,-3.61,
35495,1661550345137,-1.1907,0.2075,0.2819,11.75,8.42,-6.18,
35496,1661550345138,-1.1565,0.1602,0.0578,11.14,1.83,-4.26,
35497,1661550345138,-1.24,0.0757,-0.1869,11.24,-11.11,-1.25,
35498,1661550345138,-1.3055,0.2007,0.4518,11.66,-12.21,-4.26,
35499,1661550345138,-1.2366,0.2539,0.4054,13.84,-9.85,-4.26,
35500,1661550345139,-1.1604,0.1421,-0.1908,13.24,-8.75,-6.71,
35501,1661550345139,-1.2005,0.1309,0.3688,10.34,2.59,-3.25,
35502,1661550345139,-1.2371,0.2031,0.629,7.75,10.37,-4.71,
35503,1661550345140,-1.136,0.0444,0.0109,9.47,2.51,-5.35,
35504,1661550345140,-1.0476,0.0464,-0.18,11.66,3.0,0.95,
35505,1661550345141,-1.2039,0.0762,0.4293,13.44,0.22,2.85,
35506,1661550345141,-1.2576,0.0898,0.4191,14.65,-5.45,0.4,
35507,1661550345143,-0.9412,-0.0425,-0.2713,12.65,-13.65,-0.43,
35508,1661550345143,-1.1692,0.0762,-0.0389,13.76,1.9,0.95,
35509,1661550345144,-1.0154,-0.0449,0.3927,14.02,4.79,0.58,
35510,1661550345144,-1.034,0.0879,0.0123,9.14,-1.99,5.49,
35511,1661550345145,-1.0315,0.1938,0.0436,9.05,3.35,3.59,
35512,1661550345145,-0.9895,0.1992,0.424,9.05,1.57,7.42,
35513,1661550345145,-1.1018,0.4424,0.3361,12.56,-2.32,5.05,
35514,1661550345146,-0.7972,0.292,0.0226,10.04,-3.5,6.23,
35515,1661550345146,-1.0271,0.2861,0.048,12.54,-0.46,7.87,
35516,1661550345147,-0.9612,0.5942,0.2321,17.06,13.83,8.61,
35517,1661550345147,-0.9436,0.3227,-0.1268,22.44,6.89,9.14,
35518,1661550345148,-0.8211,0.6406,-0.1312,24.86,12.9,2.31,
35519,1661550345148,-0.7054,0.6269,-0.0765,24.44,3.09,3.31,
35520,1661550345148,-0.8074,0.374,-0.1703,19.44,5.88,0.31,
35521,1661550345149,-0.7317,0.5322,-0.202,18.45,1.15,0.95,
35522,1661550345149,-0.7244,0.3603,-0.1732,20.14,4.19,-5.9,
35523,1661550345150,-0.8328,0.354,-0.0213,24.14,4.19,-3.98,
35524,1661550345150,-0.8348,0.3335,0.1276,29.34,5.29,-5.9,
35525,1661550345151,-0.7869,0.1841,0.0607,29.54,5.05,-5.54,
35526,1661550345151,-0.7356,0.1025,-0.3451,28.82,0.04,-4.44,
35527,1661550345152,-0.6985,0.1304,-0.0853,25.94,15.19,-2.35,
35528,1661550345152,-0.7015,0.0415,0.0636,25.43,9.44,1.39,
35529,1661550345152,-0.7332,0.1636,-0.3944,21.94,5.29,-8.91,
35530,1661550345153,-0.5974,-0.0078,-0.4906,23.54,-12.3,-3.43,
35531,1661550345153,-0.9768,-0.0024,-0.037,27.63,-1.47,-3.34,
35532,1661550345154,-0.8269,0.0425,0.1344,27.34,0.8,-0.79,
35533,1661550345155,-0.9119,-0.0942,-0.3846,22.25,-8.92,-2.44,
35534,1661550345155,-0.8582,0.1504,0.2106,21.64,-11.62,-0.88,
35535,1661550345155,-0.9558,0.0825,0.2824,24.53,-13.07,-2.26,
35536,1661550345156,-0.9412,0.0503,-0.2128,31.23,-4.09,-1.34,
35537,1661550345156,-0.9153,-0.0039,-0.267,28.06,-0.54,-0.61,
35538,1661550345157,-0.9964,0.0815,0.4655,20.34,7.58,-4.53,
35539,1661550345157,-0.8855,0.2983,0.0753,23.15,-8.66,-6.36,
35540,1661550345158,-0.9192,-0.0679,-0.8006,27.14,-13.23,-4.44,
35541,1661550345158,-0.9837,0.0727,0.0343,25.34,4.62,-7.35,
35542,1661550345159,-1.0418,-0.0103,0.1447,21.74,-3.42,-4.26,
35543,1661550345159,-1.0042,-0.1357,-0.617,17.74,-14.33,-4.16,
35544,1661550345160,-1.075,-0.1328,0.0206,19.04,-17.46,-2.53,
35545,1661550345160,-1.1961,-0.1221,0.4284,13.84,-6.89,-1.71,
35546,1661550345161,-1.1678,-0.1475,0.1608,14.85,-11.8,-0.7,
35547,1661550345161,-1.1477,-0.1733,-0.0536,12.16,-0.46,0.49,
35548,1661550345161,-1.1673,-0.084,0.3776,11.15,1.99,0.58,
35549,1661550345162,-1.1634,-0.1611,0.2257,12.94,3.93,0.22,
35550,1661550345162,-1.2742,-0.0122,0.0163,12.34,-2.57,-1.98,
35551,1661550345163,-1.304,-0.0615,0.2028,11.14,-6.46,-0.61,
35552,1661550345163,-1.1385,-0.1714,0.1872,9.46,-17.29,-5.72,
35553,1661550345164,-1.3904,-0.044,0.0289,12.34,-17.03,-0.33,
35554,1661550345164,-1.1663,-0.0708,0.2614,17.24,-6.63,0.95,
35555,1661550345165,-1.2947,-0.0254,0.1076,13.15,-8.15,-1.07,
35556,1661550345165,-1.1433,0.0322,0.3141,9.15,1.32,-0.15,
35557,1661550345166,-1.262,0.0195,0.2721,7.95,-9.59,-2.17,
35558,1661550345166,-1.2176,0.2046,0.2819,8.47,-3.93,-2.35,
35559,1661550345166,-1.0071,0.0644,0.2218,13.75,-3.42,-4.62,
35560,1661550345167,-1.1287,0.1323,0.2204,14.04,5.63,0.67,
35561,1661550345167,-1.1316,0.4058,0.3165,13.85,9.44,-6.62,
35562,1661550345168,-1.0974,0.1816,0.0099,12.74,-4.95,-1.43,
35563,1661550345168,-0.9568,0.1518,-0.1859,10.65,-7.48,-6.53,
35564,1661550345169,-0.9925,0.5034,0.3903,11.44,4.95,-4.81,
35565,1661550345169,-0.9988,0.1973,0.0138,11.55,-0.2,-0.15,
35566,1661550345170,-1.0242,0.3491,-0.0809,10.65,1.32,-1.71,
35567,1661550345170,-1.0979,0.4878,0.5372,7.84,2.67,1.13,
35568,1661550345170,-1.0393,0.4058,0.4088,13.84,-4.26,-4.07,
35569,1661550345171,-0.9949,0.3184,-0.1507,17.76,-1.06,-1.34,
35570,1661550345171,-0.93,0.292,0.317,19.94,12.06,-3.89,
35571,1661550345172,-1.0486,0.4375,0.254,20.64,16.29,-2.35,
35572,1661550345172,-0.7439,0.1899,-0.2948,19.55,10.54,-1.8,
35573,1661550345173,-0.8933,0.2119,-0.1087,18.03,4.02,-4.16,
35574,1661550345173,-0.9969,0.3828,0.3395,23.34,1.57,-2.35,
35575,1661550345174,-0.824,0.1103,-0.4212,28.33,-5.79,0.49,
35576,1661550345174,-0.719,0.2485,-0.0438,28.26,13.5,3.04,
35577,1661550345175,-0.6575,0.2881,0.3419,23.15,15.7,0.03,
35578,1661550345175,-0.803,0.2187,-0.5751,19.64,-0.13,0.49,
35579,1661550345176,-0.823,0.126,-0.6517,20.86,-10.95,-0.7,
35580,1661550345176,-0.9065,0.1494,0.341,23.45,9.35,-1.52,
35581,1661550345176,-0.8133,0.5693,0.1837,27.34,12.48,1.85,
35582,1661550345177,-0.6663,0.081,-0.951,28.44,5.79,-0.98,
35583,1661550345177,-0.8299,0.4141,-0.0321,26.44,11.04,-0.7,
35584,1661550345178,-0.8059,0.5352,0.546,23.15,7.32,-5.63,
35585,1661550345178,-0.825,0.1538,-0.2543,24.03,-12.55,-2.97,
35586,1661550345179,-0.8553,0.3755,-0.7538,28.84,-7.56,-10.63,
35587,1661550345179,-0.7801,0.2578,0.1852,23.83,5.46,-6.53,
35588,1661550345180,-0.8758,0.2207,0.0075,24.14,8.25,-7.72,
35589,1661550345180,-0.8787,0.0713,-0.3578,23.16,-0.2,-7.17,
35590,1661550345181,-0.9578,-0.0,0.2428,28.04,-0.46,-2.97,
35591,1661550345181,-0.9422,0.0493,0.3644,28.53,-6.8,-7.99,
35592,1661550345181,-0.9529,-0.1533,-0.182,26.03,-6.89,-6.8,
35593,1661550345182,-0.9158,-0.1675,-0.2201,21.54,-2.66,-11.82,
35594,1661550345182,-1.0159,-0.0391,0.1662,21.03,3.69,-10.1,
35595,1661550345183,-0.9729,-0.271,-0.0687,24.46,-6.89,-10.63,
35596,1661550345183,-1.0667,-0.1533,-0.3587,23.15,-13.07,-7.35,
35597,1661550345183,-1.0852,-0.4014,0.0416,18.64,-14.17,-1.34,
35598,1661550345183,-1.2254,-0.2085,0.2999,18.84,-5.62,0.4,
35599,1661550345184,-0.889,-0.2227,-0.1644,18.14,-12.64,-1.43,
35600,1661550345184,-1.1331,-0.125,-0.0135,10.65,-18.13,4.78,
35601,1661550345186,-1.0872,-0.0488,0.3375,10.56,-13.4,3.04,
35602,1661550345186,-1.2146,-0.1943,0.2106,12.14,-13.4,8.06,
35603,1661550345187,-1.2044,0.0322,0.1579,12.34,-3.76,2.4,
35604,1661550345187,-1.2688,0.1977,0.2726,12.24,-4.43,4.32,
35605,1661550345187,-1.1458,0.1318,0.1583,10.24,-4.95,-2.44,
35606,1661550345188,-1.1155,0.1631,0.0451,13.64,-9.51,-5.35,
35607,1661550345188,-1.2488,0.1006,0.0587,12.65,-17.2,0.4,
35608,1661550345188,-1.2937,0.1553,0.3478,12.04,-8.49,-1.62,
35609,1661550345189,-1.2332,0.2339,0.4279,11.64,-1.3,-2.53,
35610,1661550345189,-1.2078,0.1538,0.0275,10.94,-4.95,0.22,
35611,1661550345189,-1.2254,0.0967,0.3331,8.76,0.22,-2.17,
35612,1661550345190,-1.198,0.1655,0.507,11.05,3.26,-3.8,
35613,1661550345190,-1.1106,0.0596,-0.037,14.14,-0.37,2.12,
35614,1661550345192,-1.0423,0.062,-0.1634,17.55,1.15,1.94,
35615,1661550345192,-1.221,0.0708,0.3502,13.55,1.4,1.76,
35616,1661550345192,-1.2327,0.104,0.32,12.45,-0.87,-3.16,
35617,1661550345193,-0.9285,-0.0898,-0.3309,11.46,-14.17,-0.15,
35618,1661550345193,-1.1995,0.0864,-0.0057,13.84,-1.3,-0.98,
35619,1661550345194,-1.0423,-0.0649,0.5182,15.04,0.39,3.13,
35620,1661550345194,-1.033,0.1211,-0.0033,11.64,-4.6,0.58,
35621,1661550345195,-0.9358,0.209,0.2516,9.95,-1.39,1.94,
35622,1661550345195,-0.9827,0.2622,0.5021,6.74,-0.71,4.87,
35623,1661550345196,-1.0618,0.4678,0.3849,12.25,5.72,7.87,
35624,1661550345196,-0.8318,0.2725,-0.0003,16.34,6.98,4.78,
35625,1661550345197,-0.9798,0.5161,0.3034,16.94,18.66,2.85,
35626,1661550345197,-0.9978,0.6802,0.3488,19.04,18.73,3.04,
35627,1661550345197,-0.9099,0.3608,-0.2684,20.54,6.65,-0.61,
35628,1661550345198,-0.7918,0.6138,-0.2777,20.86,5.72,-1.62,
35629,1661550345198,-0.721,0.6333,0.0514,22.46,4.62,-2.07,
35630,1661550345199,-0.6692,0.4043,-0.2064,22.93,6.72,-3.25,
35631,1661550345199,-0.7127,0.4888,-0.3622,24.93,3.26,2.12,
35632,1661550345200,-0.7547,0.4121,-0.1322,22.84,4.69,-1.34,
35633,1661550345200,-0.8572,0.2983,0.0846,24.34,-1.23,0.95,
35634,1661550345201,-0.8059,0.271,-0.0565,24.46,3.18,-6.27,
35635,1661550345201,-0.6912,0.1206,-0.1454,28.53,6.39,-3.16,
35636,1661550345201,-0.8387,0.1191,-0.1918,29.23,9.27,-2.61,
35637,1661550345201,-0.7088,0.0708,-0.0819,28.73,17.47,-2.44,
35638,1661550345202,-0.6692,-0.0029,-0.1195,20.54,3.76,-6.18,
35639,1661550345202,-0.7386,0.1963,-0.3138,20.93,-5.28,-5.63,
35640,1661550345202,-0.8518,-0.1338,-0.3851,28.93,-11.71,-6.45,
35641,1661550345203,-0.9656,0.0088,0.1295,25.85,1.32,-1.98,
35642,1661550345203,-0.8274,-0.0527,-0.097,20.86,-11.71,-6.27,
35643,1661550345204,-0.9876,0.1479,-0.1664,22.95,-16.36,-6.36,
35644,1661550345204,-0.8269,0.0937,0.4176,27.85,1.06,-5.26,
35645,1661550345205,-0.9724,0.0893,0.3629,26.93,2.09,-5.72,
35646,1661550345205,-0.9139,0.0317,-0.2176,25.25,-7.15,-5.35,
35647,1661550345206,-1.0345,-0.0713,0.1305,21.13,-12.98,-6.27,
35648,1661550345206,-1.0227,0.3389,0.5753,24.35,0.47,-7.17,
35649,1661550345207,-0.8557,0.0518,-0.6571,30.13,-1.3,-3.52,
35650,1661550345207,-0.8753,-0.0283,-0.4549,28.53,1.32,-2.88,
35651,1661550345207,-1.0135,0.0923,0.2326,20.86,6.22,-9.37,
35652,1661550345208,-1.0642,-0.0313,0.2135,14.56,-13.57,-6.99,
35653,1661550345208,-0.9661,-0.144,-0.8461,18.34,-24.65,-6.71,
35654,1661550345210,-1.1004,-0.0942,0.194,17.74,-5.53,-4.99,
35655,1661550345210,-1.1863,-0.1148,0.6456,15.15,-6.38,-2.35,
35656,1661550345211,-1.0965,-0.2061,-0.3617,13.24,-12.21,-1.89,
35657,1661550345211,-1.0696,-0.1138,0.254,12.94,2.67,-2.44,
35658,1661550345212,-1.2561,-0.0811,0.5324,12.94,8.42,-1.8,
35659,1661550345212,-1.1355,-0.1719,0.2233,10.76,3.09,-1.52,
35660,1661550345213,-1.302,-0.083,-0.1336,9.84,-19.57,-6.09,
35661,1661550345213,-1.3059,-0.0357,0.3795,11.75,-15.68,-5.63,
35662,1661550345214,-1.2552,-0.1577,0.0905,17.64,-18.82,-2.7,
35663,1661550345214,-1.3157,-0.0264,0.1388,11.46,4.95,1.94,
35664,1661550345215,-1.2049,-0.0181,0.3039,8.35,-5.12,0.03,
35665,1661550345215,-1.3265,0.0518,0.2428,7.55,-5.79,-2.61,
35666,1661550345216,-1.159,0.0078,0.3317,11.84,-8.66,3.04,
35667,1661550345216,-1.2669,0.0596,0.1901,11.66,-5.19,-0.15,
35668,1661550345216,-1.1248,0.2173,0.3537,12.54,7.24,1.94,
35669,1661550345217,-1.2322,0.0195,0.1037,12.24,3.52,-2.53,
35670,1661550345217,-1.1194,0.1811,0.0963,8.74,7.24,1.04,
35671,1661550345218,-1.1033,0.4282,0.132,11.64,1.4,1.48,
35672,1661550345218,-1.0281,-0.0122,-0.2601,12.54,-8.32,0.86,
35673,1661550345218,-1.1521,0.4468,0.1373,10.05,-4.52,-0.61,
35674,1661550345218,-1.0169,0.4878,0.3952,10.65,4.86,-0.52,
35675,1661550345218,-0.9925,0.2685,-0.0057,11.44,0.8,2.12,
35676,1661550345220,-1.0105,0.3794,-0.057,9.46,0.73,0.58,
35677,1661550345220,-1.0789,0.4253,0.5705,11.14,8.17,0.58,
35678,1661550345221,-0.9578,0.313,0.0187,15.84,2.59,3.86,
35679,1661550345221,-0.9925,0.3061,-0.1703,15.35,4.53,-1.89,
35680,1661550345221,-0.9251,0.2832,0.2589,17.26,16.63,2.58,
35681,1661550345221,-1.0306,0.415,0.2272,21.15,17.56,-2.97,
35682,1661550345222,-0.7176,0.1597,-0.3343,21.36,6.39,0.86,
35683,1661550345222,-0.8997,0.1768,-0.2098,19.64,0.56,1.3,
35684,1661550345222,-0.9954,0.3003,0.2062,23.24,-3.16,5.31,
35685,1661550345223,-0.8465,0.0967,-0.3597,24.32,-12.9,2.12,
35686,1661550345224,-0.7,0.2656,0.0128,26.35,3.76,4.14,
35687,1661550345224,-0.6966,0.2432,0.2218,24.64,8.94,4.78,
35688,1661550345224,-0.8489,0.2212,-0.1019,21.06,5.88,2.95,
35689,1661550345225,-0.8279,0.1807,-0.4291,21.54,-0.37,-1.34,
35690,1661550345226,-0.8836,0.1714,0.3776,23.24,9.52,0.4,
35691,1661550345227,-0.8963,0.5825,0.194,30.06,13.07,-1.8,
35692,1661550345227,-0.6936,0.083,-0.8841,32.71,4.53,-0.24,
35693,1661550345228,-0.6175,0.1509,-0.7015,25.65,7.91,-1.16,
35694,1661550345228,-0.7859,0.5625,0.546,22.93,9.52,-0.61,
35695,1661550345229,-0.868,0.1626,-0.1918,20.84,-14.93,-0.24,
35696,1661550345229,-0.8391,0.3218,-0.9095,25.83,-16.27,2.12,
35697,1661550345229,-0.7976,0.2173,0.1955,29.74,2.5,1.39,
35698,1661550345230,-0.9075,0.1728,0.3727,25.63,7.24,-2.17,
35699,1661550345230,-0.908,0.2519,-0.3251,24.84,0.22,-0.06,
35700,1661550345231,-0.9807,-0.1348,-0.2372,20.25,0.04,1.04,
35701,1661550345231,-0.9397,0.0991,0.4328,22.25,3.76,1.85,
35702,1661550345232,-0.9397,-0.1499,-0.1317,25.63,-5.03,3.22,
35703,1661550345232,-0.8548,-0.2905,-0.4076,24.84,-9.51,3.4,
35704,1661550345233,-0.9583,0.0444,-0.0282,22.25,0.13,3.31,
35705,1661550345233,-0.8157,-0.2207,0.1779,23.83,2.59,-1.16,
35706,1661550345233,-1.0862,-0.231,-0.4022,23.04,-9.34,1.94,
35707,1661550345234,-1.013,-0.3106,-0.1556,22.44,-16.03,4.32,
35708,1661550345234,-1.2708,-0.3145,0.341,18.05,-22.45,7.14,
35709,1661550345235,-0.9754,-0.1709,0.004,14.63,-14.41,7.6,
35710,1661550345235,-0.9392,-0.1992,-0.2059,13.44,-13.31,8.42,
35711,1661550345236,-1.1477,-0.084,0.0705,11.37,-0.63,-4.35,
35712,1661550345236,-1.0965,-0.042,0.3268,12.45,-9.76,2.76,
35713,1661550345237,-1.2254,-0.1362,0.111,13.06,-8.15,1.22,
35714,1661550345237,-1.1238,0.2651,0.2965,12.05,-6.05,0.22,
35715,1661550345237,-1.1433,0.0561,0.0758,9.76,-7.56,2.31,
35716,1661550345238,-1.139,0.1079,0.0197,8.24,-7.65,-0.98,
35717,1661550345238,-1.1433,0.1582,0.0558,10.36,-9.68,-1.62,
35718,1661550345239,-1.222,0.0708,0.1701,9.95,-8.32,3.4,
35719,1661550345239,-1.2771,0.2563,0.4381,12.56,-5.12,-2.26,
35720,1661550345240,-1.2317,0.1816,0.1876,12.86,-8.66,-0.98,
35721,1661550345240,-1.1932,0.0483,0.0431,11.56,-12.21,-2.88,
35722,1661550345241,-1.2063,0.0244,0.4318,9.95,9.35,-1.34,
35723,1661550345241,-1.1365,0.106,0.3756,11.63,8.94,0.22,
35724,1661550345242,-1.1658,0.0674,-0.2445,12.54,2.5,2.03,
35725,1661550345242,-1.0418,0.0459,-0.1083,15.04,2.67,-0.79,
35726,1661550345243,-1.2571,0.0181,0.4362,12.54,-0.8,0.12,
35727,1661550345243,-1.0779,-0.0015,0.0167,14.14,-6.12,2.31,
35728,1661550345243,-1.0686,-0.0342,-0.3866,13.64,-12.98,0.4,
35729,1661550345244,-1.1736,0.0576,0.4484,12.94,-2.4,3.31,
35730,1661550345244,-1.0511,-0.0093,0.2335,9.64,-5.88,6.87,
35731,1661550345245,-1.0501,0.1328,-0.0502,11.66,-6.89,6.59,
35732,1661550345245,-0.9344,0.2319,0.3537,10.94,0.8,9.69,
35733,1661550345246,-1.1927,0.3906,0.5861,14.14,4.69,5.77,
35734,1661550345246,-0.9202,0.3433,0.0163,17.04,7.75,2.03,
35735,1661550345246,-0.8753,0.291,-0.0365,16.14,4.69,2.95,
35736,1661550345247,-0.9988,0.5791,0.4816,15.44,15.96,-1.89,
35737,1661550345247,-0.8894,0.5693,0.0275,22.05,4.62,-3.52,
35738,1661550345248,-0.8333,0.3672,-0.5111,20.93,2.67,-3.52,
35739,1661550345248,-0.8435,0.7685,0.0582,24.53,5.05,-2.07,
35740,1661550345249,-0.7547,0.5889,0.1539,25.54,5.88,0.31,
35741,1661550345249,-0.6878,0.3584,-0.308,23.95,6.31,-3.43,
35742,1661550345250,-0.7513,0.5688,-0.2674,21.13,3.0,-4.71,
35743,1661550345250,-0.8279,0.271,0.1442,22.44,3.93,-2.26,
35744,1661550345250,-0.8055,0.3169,-0.1146,26.26,-2.57,-2.88,
35745,1661550345251,-0.7962,0.2983,-0.1087,29.63,14.34,-5.9,
35746,1661550345251,-0.7254,0.085,-0.078,27.94,14.0,-6.99,
35747,1661550345252,-0.8631,0.1738,-0.1986,25.05,9.52,-4.35,
35748,1661550345252,-0.5765,-0.0127,-0.0838,24.14,3.52,-0.61,
35749,1661550345252,-0.8279,0.208,-0.1019,24.64,3.52,-4.07,
35750,1661550345252,-0.6365,0.0063,-0.3729,25.24,-1.3,-3.98,
35751,1661550345253,-0.9724,-0.0776,-0.1581,23.34,-8.84,0.49,
35752,1661550345253,-0.9427,0.0644,0.1818,21.35,-2.66,-1.07,
35753,1661550345255,-0.846,0.0049,-0.1127,21.94,-15.51,2.03,
35754,1661550345255,-1.0013,0.0435,-0.2093,25.04,-5.03,-0.52,
35755,1661550345255,-0.8557,0.1724,0.4533,21.24,-0.46,-3.16,
35756,1661550345255,-1.0174,0.1123,-0.0887,19.83,-10.01,0.31,
35757,1661550345256,-0.8665,-0.0132,-0.329,22.75,-12.72,-0.43,
35758,1661550345256,-0.9549,0.1675,0.5504,28.93,9.01,-4.26,
35759,1661550345257,-0.9783,0.3481,0.4318,28.14,7.32,-2.88,
35760,1661550345257,-0.8387,0.0073,-0.7513,27.24,-7.22,2.31,
35761,1661550345257,-0.9075,-0.0357,-0.3573,19.94,-6.63,-0.61,
35762,1661550345258,-1.0618,0.0474,0.4489,17.96,-6.89,-0.88,
35763,1661550345259,-1.0374,-0.1309,-0.4906,20.84,-15.51,-5.63,
35764,1661550345260,-1.0672,-0.1079,-0.3343,17.64,-15.94,-4.71,
35765,1661550345260,-1.1839,-0.144,0.6735,11.44,-5.36,-4.99,
35766,1661550345261,-1.1658,-0.1582,0.4835,14.74,-17.8,-1.16,
35767,1661550345261,-1.1521,-0.2388,-0.2572,15.15,-6.98,-3.16,
35768,1661550345262,-1.0965,-0.1274,0.3981,11.95,7.75,-9.28,
35769,1661550345262,-1.2566,-0.0693,0.3624,11.84,-5.36,-5.72,
35770,1661550345263,-1.0603,-0.1836,-0.1888,7.75,-17.46,-5.26,
35771,1661550345263,-1.4139,0.0347,0.3102,16.55,-2.06,-2.97,
35772,1661550345264,-1.1639,-0.1567,0.2682,16.65,-3.16,-2.35,
35773,1661550345264,-1.4041,-0.0752,-0.0238,12.74,-14.41,-2.61,
35774,1661550345264,-1.1184,0.0288,0.4855,8.15,-13.57,3.22,
35775,1661550345265,-1.2088,-0.0151,0.3488,8.35,-25.49,-1.16,
35776,1661550345265,-1.2503,0.0723,0.1754,12.86,-5.03,-1.8,
35777,1661550345266,-1.1233,0.0542,0.3253,13.84,-3.59,-1.34,
35778,1661550345266,-1.1238,0.2412,0.3766,10.95,5.46,-3.61,
35779,1661550345267,-1.0618,0.1274,0.1369,12.25,3.93,0.49,
35780,1661550345267,-1.158,0.0415,-0.0672,11.37,-3.26,-1.62,
35781,1661550345268,-1.1482,0.4141,0.1105,13.64,1.32,-4.16,
35782,1661550345268,-1.0472,0.2129,0.0397,14.56,-6.55,-4.53,
35783,1661550345268,-1.0262,0.2432,-0.181,10.54,-6.12,-5.08,
35784,1661550345268,-0.9822,0.4204,0.276,11.15,1.23,-4.44,
35785,1661550345268,-1.0442,0.2925,0.255,9.46,-0.37,-5.17,
35786,1661550345269,-0.972,0.3061,-0.0751,9.55,-1.39,-1.25,
35787,1661550345269,-1.0223,0.4224,0.3522,12.86,10.71,0.49,
35788,1661550345271,-1.0066,0.2998,0.2951,16.54,6.72,-2.35,
35789,1661550345271,-1.0276,0.2681,-0.1366,17.94,1.66,-5.54,
35790,1661550345271,-0.9095,0.2046,0.0236,15.55,1.23,-3.25,
35791,1661550345271,-1.0286,0.3916,0.3913,17.13,7.75,-4.81,
35792,1661550345272,-0.8733,0.2876,-0.1039,25.54,4.45,2.85,
35793,1661550345272,-0.9187,0.1997,-0.203,23.94,8.08,-0.33,
35794,1661550345272,-0.9622,0.2954,0.1549,20.64,12.64,-2.88,
35795,1661550345273,-0.783,0.1582,-0.0126,18.35,-5.7,-1.43,
35796,1661550345273,-0.7845,0.1709,-0.2987,25.34,-4.6,-0.15,
35797,1661550345274,-0.6741,0.2778,0.216,27.16,5.79,2.85,
35798,1661550345274,-0.8182,0.2637,-0.1835,29.83,2.16,-0.61,
35799,1661550345276,-0.7962,0.2134,-0.4603,25.05,-1.73,-1.98,
35800,1661550345276,-0.8089,0.0762,0.3258,23.83,5.46,-0.15,
35801,1661550345277,-0.5813,0.519,0.5216,21.06,10.45,-2.07,
35802,1661550345277,-0.4807,0.3696,-0.5355,28.24,3.93,2.03,
35803,1661550345278,-0.6292,0.1269,-0.7713,29.55,2.25,-1.8,
35804,1661550345278,-0.7869,0.5454,0.5788,23.65,13.41,-2.7,
35805,1661550345278,-0.9026,0.1406,-0.0936,23.44,-3.0,-6.09,
35806,1661550345279,-0.7312,0.2368,-0.6776,21.94,-15.86,-4.71,
35807,1661550345280,-0.6263,0.2856,-0.2665,22.46,-4.43,-5.81,
35808,1661550345280,-0.8997,0.1753,0.4664,26.03,6.89,-3.25,
35809,1661550345280,-0.8968,0.1943,-0.3714,25.42,-6.12,-6.9,
35810,1661550345282,-1.0061,-0.1758,-0.1942,24.84,-0.87,-5.54,
35811,1661550345282,-0.9851,0.1265,0.5626,25.04,-4.09,-4.53,
35812,1661550345282,-0.9031,-0.1323,-0.2391,27.54,-7.99,-5.17,
35813,1661550345282,-0.908,-0.208,-0.3163,22.84,-6.8,-6.8,
35814,1661550345283,-1.0086,0.0166,0.1383,21.35,4.79,-9.09,
35815,1661550345283,-0.8406,-0.2573,0.2692,22.64,-0.71,-1.71,
35816,1661550345283,-1.0789,-0.2544,-0.5458,25.14,-18.22,-7.17,
35817,1661550345283,-1.0144,-0.2944,-0.0218,20.93,-12.21,-7.26,
35818,1661550345285,-1.2781,-0.2905,0.4035,15.97,-11.43,-6.71,
35819,1661550345285,-0.9417,-0.1582,-0.1283,16.45,-8.66,-0.43,
35820,1661550345286,-1.1321,-0.1636,-0.1678,14.04,-13.65,-2.17,
35821,1661550345286,-1.1004,-0.0308,0.3483,12.25,-7.22,0.22,
35822,1661550345286,-1.2434,-0.2134,0.1349,16.05,-12.72,-0.98,
35823,1661550345287,-1.2015,0.2065,0.2028,13.75,-4.52,-0.33,
35824,1661550345287,-1.1433,0.3096,0.277,12.45,-2.16,-1.25,
35825,1661550345289,-1.156,-0.0273,-0.0179,9.93,-6.8,-0.33,
35826,1661550345289,-1.2141,0.1846,0.1686,9.75,-4.86,-0.61,
35827,1661550345289,-1.2864,0.0635,0.1066,11.24,-11.88,-1.52,
35828,1661550345289,-1.2952,0.1479,0.1564,13.55,-13.31,-1.89,
35829,1661550345290,-1.2762,0.2358,0.4923,10.85,-3.33,-0.61,
35830,1661550345290,-1.2703,0.1475,0.3141,12.45,-5.45,0.95,
35831,1661550345291,-1.1912,-0.0581,-0.0033,8.15,-1.81,-2.61,
35832,1661550345291,-1.1453,0.1362,0.4572,6.85,6.56,-0.7,
35833,1661550345292,-1.1531,0.0649,0.1198,9.75,1.4,-6.0,
35834,1661550345292,-1.198,0.0527,-0.1786,13.84,-2.83,-1.71,
35835,1661550345293,-1.0638,0.0073,0.0187,17.74,-1.13,-2.07,
35836,1661550345293,-1.2522,0.0962,0.4259,13.55,3.86,-4.26,
35837,1661550345293,-0.9544,-0.0566,-0.3045,14.14,-12.98,3.22,
35838,1661550345294,-1.2044,0.0366,-0.0282,7.14,-10.87,-0.7,
35839,1661550345294,-1.011,0.0332,0.6608,12.46,-1.73,4.96,
35840,1661550345295,-1.0393,0.1196,0.3112,12.14,-9.68,6.59,
35841,1661550345295,-0.9666,0.2143,-0.055,13.95,3.09,5.05,
35842,1661550345296,-1.0374,0.3115,0.5597,11.84,8.17,1.66,
35843,1661550345296,-1.0105,0.4556,0.2931,14.45,8.34,1.04,
35844,1661550345297,-0.8904,0.2476,-0.18,15.24,0.22,4.87,
35845,1661550345297,-1.0672,0.3047,0.0504,16.84,12.74,1.48,
35846,1661550345297,-0.9891,0.7002,0.3961,18.54,14.77,1.3,
35847,1661550345298,-0.8577,0.3408,-0.4198,22.34,0.47,2.85,
35848,1661550345298,-0.8308,0.6553,-0.1869,19.94,5.98,-4.53,
35849,1661550345299,-0.8557,0.6934,0.1286,19.76,8.34,1.13,
35850,1661550345299,-0.8113,0.3291,0.0343,20.84,6.39,-4.99,
35851,1661550345300,-0.7449,0.5142,-0.3329,23.94,1.9,-0.88,
35852,1661550345300,-0.802,0.3496,0.0558,23.63,8.85,-1.43,
35853,1661550345301,-0.8011,0.2393,0.0958,27.24,11.47,1.85,
35854,1661550345301,-0.7947,0.2583,-0.1361,24.95,7.08,0.03,
35855,1661550345301,-0.7137,0.1758,-0.0838,27.54,9.27,-1.8,
35856,1661550345302,-0.8182,0.1416,-0.1649,27.34,3.86,-2.07,
35857,1661550345302,-0.6844,0.0664,-0.2723,26.85,6.98,2.31,
35858,1661550345303,-0.7122,0.0527,-0.1097,24.84,7.91,1.3,
35859,1661550345303,-0.8221,0.2256,-0.0677,24.53,7.91,2.21,
35860,1661550345304,-0.6233,-0.0635,-0.4754,23.24,-7.99,-0.52,
35861,1661550345304,-0.971,-0.041,-0.1942,23.94,-15.6,1.76,
35862,1661550345306,-0.8211,0.0893,0.3659,26.05,-0.97,6.14,
35863,1661550345306,-0.9021,0.0395,-0.39,26.05,-11.88,5.59,
35864,1661550345306,-0.7298,0.1069,0.1686,23.83,-0.97,3.77,
35865,1661550345306,-0.9046,0.1641,0.4591,19.35,-4.02,2.12,
35866,1661550345307,-0.9993,0.1675,-0.0243,21.36,-10.18,-1.89,
35867,1661550345307,-0.8724,-0.0757,-0.2801,26.95,-3.33,0.67,
35868,1661550345307,-0.8933,0.2754,0.5255,25.54,15.96,-2.26,
35869,1661550345308,-0.7849,0.3081,-0.2455,28.04,0.47,-4.99,
35870,1661550345308,-0.9099,-0.2407,-0.868,25.34,-18.39,-2.88,
35871,1661550345309,-0.9085,-0.0171,-0.223,18.16,-10.69,-3.43,
35872,1661550345309,-1.0179,0.0395,0.4357,18.34,-3.26,0.12,
35873,1661550345310,-0.971,-0.1763,-0.5751,20.05,-17.46,-1.8,
35874,1661550345310,-1.0823,-0.0693,-0.2318,13.64,-19.92,-1.16,
35875,1661550345311,-1.1516,-0.1821,0.7565,14.94,-5.36,-2.53,
35876,1661550345311,-1.1307,-0.2188,-0.1068,16.94,-10.35,-4.81,
35877,1661550345312,-1.0574,-0.2383,0.0241,13.15,0.8,-6.45,
35878,1661550345312,-1.2444,-0.0239,0.6051,8.45,-3.33,-5.54,
35879,1661550345312,-1.0677,-0.2197,-0.0843,10.34,-8.84,-5.72,
35880,1661550345313,-1.386,-0.1646,-0.1229,14.23,-9.01,-3.34,
35881,1661550345313,-1.3797,-0.001,0.3029,11.96,-1.56,-4.99,
35882,1661550345314,-1.0769,-0.1411,0.2692,11.56,-25.24,-6.62,
35883,1661550345314,-1.4134,-0.0537,-0.0941,13.44,-21.26,-6.9,
35884,1661550345315,-1.1253,0.0439,0.5016,10.24,-5.79,2.21,
35885,1661550345315,-1.3099,0.0474,0.2272,11.44,-5.03,-2.53,
35886,1661550345316,-1.1194,0.0835,0.2233,9.64,0.3,0.12,
35887,1661550345316,-1.1609,0.0996,0.2672,7.44,-3.93,4.87,
35888,1661550345317,-1.1189,0.2056,0.5148,7.84,4.69,-3.61,
35889,1661550345317,-1.0423,0.1587,0.131,15.14,0.97,3.04,
35890,1661550345318,-1.0574,0.2578,-0.0384,15.56,-1.3,1.04,
35891,1661550345318,-1.1551,0.4233,0.1745,12.24,3.26,-4.62,
35892,1661550345318,-1.0745,0.1724,0.1056,12.85,-5.12,0.95,
35893,1661550345318,-1.0227,0.1577,-0.2616,10.15,-9.85,-1.25,
35894,1661550345318,-0.9993,0.4082,0.3082,9.14,0.9,1.39,
35895,1661550345319,-1.0169,0.3135,0.1886,9.35,-0.29,-4.53,
35896,1661550345319,-0.9646,0.2798,-0.0946,11.55,-3.67,-3.52,
35897,1661550345320,-1.0091,0.3418,0.2282,12.85,12.23,-3.16,
35898,1661550345320,-0.9969,0.2852,0.4332,14.46,9.52,-3.89,
35899,1661550345321,-1.0423,0.2544,-0.0775,19.65,2.67,-0.06,
35900,1661550345321,-0.9051,0.2676,0.0612,19.35,5.55,2.03,
35901,1661550345322,-1.0369,0.4121,0.2907,16.65,9.68,-2.07,
35902,1661550345322,-0.8689,0.2939,0.1051,20.66,9.52,-2.44,
35903,1661550345322,-0.9671,0.1509,-0.2806,22.64,-2.23,3.31,
35904,1661550345323,-0.9261,0.2725,0.1066,20.84,1.99,-0.15,
35905,1661550345323,-0.8753,0.1826,-0.056,20.45,-4.09,4.96,
35906,1661550345324,-0.7688,0.2217,-0.1249,23.74,5.79,3.86,
35907,1661550345324,-0.6453,0.2353,0.0656,25.43,5.12,8.15,
35908,1661550345325,-0.8196,0.3623,-0.1044,23.36,8.34,3.95,
35909,1661550345325,-0.7937,0.2075,-0.3338,26.53,2.76,0.58,
35910,1661550345327,-0.8387,0.0425,-0.0873,20.74,7.91,3.86,
35911,1661550345327,-0.6907,0.6206,0.4787,20.86,16.7,-7.17,
35912,1661550345327,-0.4612,0.4033,-0.5863,28.24,7.08,-5.54,
35913,1661550345328,-0.6673,0.1465,-0.8436,30.33,0.47,-4.81,
35914,1661550345328,-0.803,0.5835,0.7086,24.55,9.35,-8.27,
35915,1661550345329,-0.8504,0.332,0.6076,23.44,-7.65,-3.43,
35916,1661550345329,-0.7312,0.2266,-0.8822,24.14,-19.75,-6.53,
35917,1661550345330,-0.6761,0.2559,-0.2645,24.73,0.73,-5.26,
35918,1661550345330,-0.8777,0.2588,0.6632,27.34,14.43,-6.27,
35919,1661550345331,-0.9236,0.1196,-0.4862,30.76,-4.67,-7.08,
35920,1661550345331,-0.9998,-0.2876,-0.3304,27.16,-3.42,-4.44,
35921,1661550345332,-1.0061,0.2143,0.5568,24.86,-3.59,-9.64,
35922,1661550345332,-0.9656,0.1758,0.2584,28.14,-4.6,-4.9,
35923,1661550345332,-0.8724,-0.3569,-0.619,26.55,-11.88,-4.53,
35924,1661550345333,-1.0428,-0.0015,0.0441,19.56,2.42,-6.71,
35925,1661550345333,-0.7586,-0.2808,0.2702,20.84,-3.16,-8.54,
35926,1661550345333,-1.0877,-0.1987,-0.5736,25.43,-17.46,-8.09,
35927,1661550345333,-1.075,-0.3394,0.172,23.44,-12.3,-4.07,
35928,1661550345334,-1.2928,-0.3081,0.4845,14.66,-13.31,1.85,
35929,1661550345334,-0.9388,-0.0376,-0.1424,11.24,-10.27,0.4,
35930,1661550345335,-1.1736,-0.2173,-0.0531,14.85,-12.14,2.49,
35931,1661550345335,-1.1297,-0.0942,0.3048,12.65,-3.26,-1.43,
35932,1661550345337,-1.076,-0.0889,0.2282,13.95,-12.04,1.66,
35933,1661550345337,-1.1858,-0.0415,0.0866,15.24,-4.86,-1.89,
35934,1661550345337,-1.1404,0.3403,0.3175,14.46,-5.28,-3.25,
35935,1661550345337,-1.1111,-0.1108,-0.0404,10.24,-9.51,0.22,
35936,1661550345338,-1.2517,0.1211,-0.0223,8.04,-11.37,-4.99,
35937,1661550345338,-1.3142,0.0757,0.1979,10.74,-7.48,-1.89,
35938,1661550345338,-1.2557,0.0498,0.3131,14.04,-10.35,-2.79,
35939,1661550345339,-1.2825,0.2207,0.32,13.04,-8.66,1.94,
35940,1661550345339,-1.2679,0.1348,0.132,12.25,-8.15,0.95,
35941,1661550345340,-1.1731,-0.04,0.2423,10.54,1.57,0.86,
35942,1661550345340,-1.1009,0.1206,0.4054,8.86,13.41,-1.89,
35943,1661550345341,-1.139,0.0576,0.1691,9.25,2.42,-2.44,
35944,1661550345341,-1.159,0.064,-0.2235,12.05,0.56,-4.16,
35945,1661550345343,-1.1282,0.0435,0.1867,15.75,-2.32,2.95,
35946,1661550345343,-1.262,0.0903,0.275,17.26,0.3,-0.79,
35947,1661550345343,-0.9783,-0.0894,-0.3983,12.74,-12.14,3.68,
35948,1661550345344,-1.1341,-0.0425,-0.3036,10.85,-10.87,1.76,
35949,1661550345344,-1.177,0.0561,0.6588,6.85,1.32,5.86,
35950,1661550345345,-1.0432,0.1445,0.1735,8.04,-7.48,2.49,
35951,1661550345345,-0.9588,0.2388,-0.0086,13.44,2.5,6.59,
35952,1661550345346,-1.1067,0.3374,0.6735,14.46,7.49,9.51,
35953,1661550345346,-1.0994,0.4521,0.5817,16.04,8.42,3.86,
35954,1661550345347,-0.8699,0.3545,-0.1429,14.94,3.09,3.68,
35955,1661550345347,-1.0584,0.3672,0.0895,13.66,7.82,4.59,
35956,1661550345348,-1.0003,0.6797,0.256,15.84,11.9,-1.89,
35957,1661550345348,-0.8655,0.5005,-0.1087,20.25,-0.87,-0.33,
35958,1661550345349,-0.8548,0.4956,-0.4154,22.03,2.25,-4.07,
35959,1661550345349,-0.8411,0.7085,0.0753,24.53,3.43,-4.44,
35960,1661550345349,-0.76,0.3164,-0.0882,24.14,5.29,-2.7,
35961,1661550345350,-0.7283,0.5737,-0.286,21.94,2.09,0.31,
35962,1661550345350,-0.7976,0.5234,-0.1708,23.74,6.82,1.66,
35963,1661550345351,-0.8064,0.2383,0.1032,24.14,11.21,-0.52,
35964,1661550345351,-0.7679,0.2944,-0.1874,30.33,10.54,-1.34,
35965,1661550345351,-0.6902,0.1016,-0.0829,27.24,13.33,-1.07,
35966,1661550345351,-0.847,0.1626,-0.1151,23.05,2.33,-2.53,
35967,1661550345351,-0.6746,0.0146,-0.1815,26.66,3.86,-2.26,
35968,1661550345353,-0.5061,-0.0947,-0.1878,25.43,2.83,0.58,
35969,1661550345353,-0.8421,0.249,-0.0692,25.83,7.75,-1.8,
35970,1661550345353,-0.6433,-0.2051,-0.3846,20.55,-10.69,1.04,
35971,1661550345354,-0.9837,-0.0034,-0.1092,21.24,-9.68,-0.24,
35972,1661550345354,-0.805,0.1186,0.2785,24.64,-2.57,3.31,
35973,1661550345354,-0.9226,0.0356,-0.4486,25.16,-13.31,-0.61,
35974,1661550345355,-0.7229,0.1724,0.1803,21.13,-2.83,0.31,
35975,1661550345355,-0.9016,0.1079,0.4362,18.46,-4.09,1.66,
35976,1661550345356,-0.9871,0.1694,-0.1161,24.35,-7.31,-1.16,
35977,1661550345356,-0.8728,0.0352,-0.2059,30.24,-0.71,1.22,
35978,1661550345357,-0.8963,0.2095,0.442,24.14,8.34,-3.8,
35979,1661550345357,-0.7996,0.2656,-0.2352,22.95,-4.69,1.13,
35980,1661550345358,-0.8689,-0.1177,-0.6795,20.64,-18.47,0.49,
35981,1661550345358,-0.9524,-0.0303,-0.0663,19.56,-6.8,-1.8,
35982,1661550345358,-1.0271,0.0649,0.3239,21.64,0.97,0.4,
35983,1661550345360,-1.0403,-0.2227,-0.5179,19.38,-12.96,1.76,
35984,1661550345360,-1.1038,-0.0938,-0.1664,15.23,-18.73,1.76,
35985,1661550345361,-1.1355,-0.1709,0.6027,12.36,-8.24,-5.45,
35986,1661550345361,-1.1233,-0.1812,-0.1786,16.65,-9.59,-4.9,
35987,1661550345362,-1.0203,-0.2168,0.0675,14.65,4.53,-5.26,
35988,1661550345362,-1.1385,-0.1582,0.4567,9.46,6.05,-1.62,
35989,1661550345363,-1.2259,-0.019,0.2545,7.84,-7.22,-6.8,
35990,1661550345363,-1.074,-0.2339,-0.3568,8.65,-21.26,3.77,
35991,1661550345364,-1.3528,-0.0459,0.4103,14.56,-6.63,0.4,
35992,1661550345364,-1.1277,-0.1553,0.3165,14.66,-8.75,0.58,
35993,1661550345364,-1.3655,-0.1939,-0.0853,12.65,-17.54,1.3,
35994,1661550345365,-1.2889,0.0347,0.3068,8.15,-9.85,-1.16,
35995,1661550345365,-1.2967,0.0552,0.4772,10.85,-16.03,2.03,
35996,1661550345366,-1.2527,0.0586,0.173,15.06,-8.58,-0.98,
35997,1661550345366,-1.1482,0.0229,0.1891,12.25,-9.68,1.57,
35998,1661550345366,-1.0808,0.3003,0.6115,10.24,8.51,-1.98,
35999,1661550345366,-1.1394,0.2778,0.4747,9.25,7.49,0.95,
36000,1661550345368,-1.1326,0.1284,-0.4134,9.96,-4.52,-2.79,
36001,1661550345368,-1.2034,0.3965,0.0788,11.75,2.5,-2.07,
36002,1661550345368,-1.1326,0.1587,0.2658,12.34,1.23,-3.98,
36003,1661550345374,-1.094,0.0547,-0.1078,14.45,-10.27,-4.71,
36004,1661550345374,-1.1018,0.3579,-0.1312,7.96,-9.94,-3.25,
36005,1661550345374,-1.0701,0.3364,0.4245,8.96,-2.06,-6.18,
36006,1661550345374,-0.9822,0.3057,0.0153,13.64,-1.3,0.76,
36007,1661550345374,-0.9768,0.2661,0.1959,13.14,8.94,-2.44,
36008,1661550345374,-1.0149,0.3179,0.483,14.14,14.17,-0.24,
36009,1661550345374,-1.0696,0.3691,0.2809,16.05,11.64,-3.61,
36010,1661550345374,-0.8474,0.1191,-0.1019,17.35,2.67,-5.72,
36011,1661550345374,-1.0345,0.4487,0.2125,17.15,3.18,0.67,
36012,1661550345374,-0.8138,0.2705,0.1178,19.24,2.67,2.12,
36013,1661550345374,-0.8284,0.0933,-0.2328,24.24,-4.43,1.48,
36014,1661550345374,-0.993,0.2607,-0.118,20.64,8.94,1.04,
36015,1661550345374,-0.7942,0.2227,0.2223,18.86,2.92,1.48,
36016,1661550345374,-0.742,0.2822,-0.1214,20.84,-1.3,5.22,
36017,1661550345374,-0.5857,0.2959,0.0143,23.25,1.4,-1.71,
36018,1661550345375,-0.7708,0.2812,0.0656,23.34,1.4,-0.15,
36019,1661550345375,-0.8577,0.4028,-0.3514,25.34,-8.92,-3.43,
36020,1661550345376,-0.8645,0.0635,-0.0565,22.54,7.15,-0.43,
36021,1661550345376,-0.7107,0.6611,0.5685,21.85,13.83,-4.07,
36022,1661550345376,-0.493,0.4102,-0.6405,27.43,8.01,-3.61,
36023,1661550345377,-0.6936,0.1841,-0.7665,29.34,5.38,-0.15,
36024,1661550345377,-0.8294,0.4624,0.0822,26.44,16.7,-4.62,
36025,1661550345378,-0.825,0.312,0.5231,25.14,-5.19,-5.54,
36026,1661550345378,-0.7825,0.2046,-0.9598,25.56,-23.12,-6.18,
36027,1661550345379,-0.722,0.2568,-0.1532,25.07,-6.37,-4.81,
36028,1661550345379,-0.907,0.2266,0.7072,27.04,17.13,-4.35,
36029,1661550345381,-0.9065,0.019,-0.6498,27.83,2.76,-3.61,
36030,1661550345381,-0.8753,-0.1968,-0.7679,24.66,-2.23,-6.18,
36031,1661550345381,-0.9143,0.0395,0.61,25.34,-3.84,-10.19,
36032,1661550345381,-0.9749,0.0771,0.2301,29.23,-8.92,-6.45,
36033,1661550345382,-0.8714,-0.3462,-0.7987,29.04,-12.64,-3.8,
36034,1661550345382,-1.0315,0.0684,0.3082,18.55,10.45,-6.99,
36035,1661550345382,-0.7932,-0.2803,0.1574,17.65,0.8,-7.08,
36036,1661550345383,-1.0276,-0.2783,-0.702,22.03,-19.06,-5.08,
36037,1661550345383,-1.0266,-0.2759,0.3107,26.03,-9.59,-3.43,
36038,1661550345384,-1.2405,-0.2954,0.525,22.46,-10.18,-0.24,
36039,1661550345384,-1.0804,-0.146,-0.0189,12.45,-8.92,2.31,
36040,1661550345385,-1.0979,-0.1851,-0.1908,9.05,-10.11,2.31,
36041,1661550345385,-1.1131,-0.0166,0.319,13.26,-3.42,1.48,
36042,1661550345386,-1.1067,-0.1113,0.151,15.06,-14.67,-2.17,
36043,1661550345386,-1.1531,0.0625,0.1681,16.14,-0.71,1.76,
36044,1661550345388,-1.0745,0.3061,0.2003,12.04,3.09,-2.44,
36045,1661550345388,-1.2073,0.0464,-0.0711,9.25,-7.05,-3.34,
36046,1661550345388,-1.2268,0.0088,0.0441,8.73,-10.69,-5.45,
36047,1661550345388,-1.1892,0.1728,0.2335,11.06,-14.41,-4.53,
36048,1661550345389,-1.2586,0.0273,0.1481,12.54,-13.31,-3.98,
36049,1661550345389,-1.2903,0.1865,0.359,13.44,-5.28,-7.63,
36050,1661550345390,-1.243,0.1035,0.2682,11.37,-1.3,-2.79,
36051,1661550345390,-1.1604,-0.0557,0.1364,11.14,-2.16,-3.43,
36052,1661550345390,-1.1795,0.0366,0.3034,10.24,6.65,-2.61,
36053,1661550345391,-1.1809,0.0098,0.2999,11.35,-0.54,-5.54,
36054,1661550345391,-1.1639,0.0561,-0.1463,10.94,-3.09,-0.24,
36055,1661550345392,-1.1136,0.0435,0.09,13.84,-5.36,-1.16,
36056,1661550345392,-1.2195,0.083,0.3483,16.94,2.42,0.67,
36057,1661550345393,-1.0384,-0.0308,0.0231,16.34,-3.33,-0.06,
36058,1661550345393,-1.1277,-0.0469,-0.3138,9.55,-12.3,-0.88,
36059,1661550345394,-1.1502,0.1177,0.6583,6.54,-5.45,5.4,
36060,1661550345394,-1.0711,0.1958,0.2067,7.26,-12.72,4.23,
36061,1661550345394,-0.9617,0.2275,-0.0365,12.75,-2.57,5.59,
36062,1661550345396,-0.9256,0.2676,0.3312,12.45,8.25,7.78,
36063,1661550345396,-1.0843,0.4658,0.5836,14.74,11.81,4.59,
36064,1661550345396,-0.8504,0.3623,-0.0624,16.34,7.75,3.13,
36065,1661550345396,-0.9978,0.3862,0.0163,12.85,7.91,0.4,
36066,1661550345397,-0.9407,0.624,0.1935,15.96,7.41,2.12,
36067,1661550345397,-0.847,0.5063,-0.1263,18.95,1.57,-1.71,
36068,1661550345398,-0.8616,0.5112,-0.2967,20.93,1.32,-6.9,
36069,1661550345398,-0.8406,0.6094,-0.037,21.44,1.4,-3.8,
36070,1661550345398,-0.7845,0.3647,0.0036,18.64,2.67,-3.25,
36071,1661550345399,-0.7381,0.5024,-0.0594,21.96,2.59,-0.52,
36072,1661550345399,-0.7976,0.479,-0.121,25.04,7.24,0.4,
36073,1661550345400,-0.7723,0.2217,0.0446,28.64,11.71,-2.61,
36074,1661550345400,-0.8103,0.3013,-0.0174,25.74,11.97,2.58,
36075,1661550345401,-0.7112,0.125,-0.1703,24.44,14.51,-4.07,
36076,1661550345401,-0.7356,0.1167,-0.2362,24.34,3.86,-4.62,
36077,1661550345402,-0.8001,0.1455,-0.1854,27.43,5.88,-3.89,
36078,1661550345402,-0.5379,-0.0674,-0.1625,26.44,0.8,-0.33,
36079,1661550345403,-0.8245,0.2441,-0.2215,28.33,7.41,0.12,
36080,1661550345403,-0.6477,-0.1006,-0.3876,23.36,-7.56,-0.98,
36081,1661550345403,-0.9749,0.0322,0.0416,18.86,-16.61,-0.7,
36082,1661550345405,-0.7781,-0.0093,0.1798,22.84,-7.65,1.66,
36083,1661550345405,-0.8206,-0.0366,-0.1659,23.54,-6.89,4.14,
36084,1661550345406,-0.8704,0.2187,0.0031,23.24,9.85,-2.17,
36085,1661550345406,-0.9593,0.0864,0.2912,19.56,-5.88,-1.62,
36086,1661550345407,-0.9568,0.1528,-0.1556,22.66,-13.65,-1.25,
36087,1661550345407,-0.909,0.0591,-0.0018,25.74,-6.55,1.57,
36088,1661550345408,-0.9026,0.2676,0.1383,25.63,11.97,-5.54,
36089,1661550345408,-0.9798,0.3613,-0.1776,23.34,0.97,-6.09,
36090,1661550345409,-0.9036,-0.1509,-0.4901,19.83,-9.34,0.12,
36091,1661550345409,-0.9749,0.0376,0.09,17.44,-13.57,-2.35,
36092,1661550345410,-1.0169,-0.041,0.1261,21.56,-10.35,-1.16,
36093,1661550345410,-0.9998,-0.1787,-0.3392,21.24,-10.01,-4.9,
36094,1661550345411,-1.1004,-0.0566,0.049,13.04,-11.37,-6.09,
36095,1661550345411,-1.1546,-0.2793,0.4884,15.96,-10.01,-6.9,
36096,1661550345411,-1.1775,-0.1958,-0.0321,17.94,-10.18,-9.73,
36097,1661550345412,-0.9793,-0.2139,0.1251,12.94,4.53,-10.1,
36098,1661550345412,-1.1507,-0.1528,0.3351,7.55,-4.02,-9.83,
36099,1661550345413,-1.2361,-0.0625,0.1832,11.56,-7.56,-8.54,
36100,1661550345413,-1.138,-0.2979,-0.2162,14.34,-14.07,-4.9,
36101,1661550345414,-1.3186,0.0117,0.3595,14.36,0.13,-4.99,
36102,1661550345414,-1.1775,-0.0908,0.2672,9.35,-15.1,-1.62,
36103,1661550345415,-1.3914,-0.0596,0.1164,6.65,-14.24,-7.99,
36104,1661550345415,-1.1546,0.0786,0.466,9.75,-12.14,-1.62,
36105,1661550345416,-1.3118,0.0815,0.3878,11.55,-7.99,-1.16,
36106,1661550345416,-1.2137,0.1645,0.2038,10.04,-1.9,4.14,
36107,1661550345416,-1.1902,0.0376,0.2697,10.15,-2.57,0.03,
36108,1661550345417,-1.1121,0.29,0.5597,10.04,8.85,3.22,
36109,1661550345418,-1.0198,0.2417,-0.0721,12.14,6.22,2.58,
36110,1661550345418,-1.1053,0.1089,-0.4095,12.94,-1.99,-1.34,
36111,1661550345418,-1.2073,0.3721,0.1515,9.25,3.26,1.66,
36112,1661550345419,-1.0994,0.1758,0.2057,11.35,-4.77,3.31,
36113,1661550345419,-1.0291,0.186,-0.3304,12.14,-11.97,4.78,
36114,1661550345420,-1.031,0.3423,0.3624,10.86,-1.73,4.5,
36115,1661550345420,-1.1556,0.3555,0.528,11.66,2.25,2.21,
36116,1661550345421,-0.9759,0.2725,-0.0296,13.66,4.53,3.04,
36117,1661550345421,-0.9471,0.2637,0.0514,11.44,14.0,1.57,
36118,1661550345422,-1.0135,0.3569,0.5006,12.74,14.77,-2.35,
36119,1661550345422,-1.0916,0.4087,0.3307,16.45,8.51,-0.98,
36120,1661550345422,-0.7688,0.1543,-0.2235,18.74,-1.9,-3.71,
36121,1661550345424,-1.0281,0.4038,0.1403,19.94,6.82,-0.79,
36122,1661550345424,-0.8138,0.2446,0.1642,22.35,10.62,0.31,
36123,1661550345424,-0.9905,0.1435,-0.4588,24.03,-0.71,3.95,
36124,1661550345424,-0.9788,0.25,-0.201,21.85,11.64,0.86,
36125,1661550345425,-0.8494,0.2593,0.3053,18.64,-3.09,5.86,
36126,1661550345425,-0.7063,0.2739,-0.1131,21.83,-4.69,4.78,
36127,1661550345426,-0.5755,0.3096,-0.0292,20.54,-3.26,3.31,
36128,1661550345426,-0.7449,0.4448,-0.0296,23.04,15.27,1.48,
36129,1661550345427,-0.6839,0.1489,-0.2801,26.24,7.82,-0.15,
36130,1661550345427,-0.7947,0.0518,-0.0702,23.25,10.11,7.69,
36131,1661550345427,-0.8611,0.7319,0.4855,21.74,8.01,-1.34,
36132,1661550345428,-0.5623,0.2983,-0.8373,28.44,-10.95,4.87,
36133,1661550345428,-0.7825,0.1875,-0.6737,27.54,-17.29,0.76,
36134,1661550345429,-0.8836,0.5552,0.7824,24.44,11.9,2.49,
36135,1661550345429,-0.7815,0.2969,0.402,25.63,-0.04,4.41,
36136,1661550345430,-0.7415,0.1782,-1.1688,27.25,-6.22,-4.9,
36137,1661550345430,-0.8162,0.231,0.1725,18.14,4.79,1.39,
36138,1661550345431,-0.9104,0.2261,0.6066,23.44,11.71,-3.98,
36139,1661550345431,-0.8094,-0.1245,-0.9842,30.84,-18.73,-1.25,
36140,1661550345431,-0.9041,-0.0664,0.1276,29.94,-5.96,-4.07,
36141,1661550345432,-1.0032,0.166,0.8834,26.85,5.88,-5.08,
36142,1661550345432,-0.9685,-0.0391,-0.1141,27.94,-2.32,1.76,
36143,1661550345433,-0.8636,-0.3384,-0.8573,23.65,-9.42,-4.07,
36144,1661550345433,-1.1033,0.0469,0.6286,17.94,-1.99,-2.53,
36145,1661550345433,-0.8304,-0.2969,0.0138,21.44,-14.07,-4.99,
36146,1661550345433,-1.0389,-0.2197,-0.6317,24.64,-12.81,-0.98,
36147,1661550345434,-1.0877,-0.2451,0.5914,22.44,-2.66,-0.61,
36148,1661550345434,-1.2019,-0.1548,0.3771,16.25,-10.11,4.41,
36149,1661550345435,-1.0481,-0.0982,-0.0467,13.35,-16.96,0.31,
36150,1661550345435,-1.0965,-0.1587,-0.2508,11.95,-9.18,0.22,
36151,1661550345436,-1.1092,0.0395,0.3082,14.85,-0.13,-4.71,
36152,1661550345436,-1.1526,-0.1538,0.1022,17.04,-2.74,-0.33,
36153,1661550345437,-1.0911,0.1709,-0.0311,13.84,-4.19,-6.8,
36154,1661550345437,-1.1141,0.2471,0.0602,12.65,-14.24,-5.72,
36155,1661550345437,-1.1072,-0.1123,0.1041,12.66,-10.87,-6.09,
36156,1661550345439,-1.1819,0.1977,0.1935,10.45,-3.09,-6.18,
36157,1661550345439,-1.1717,0.0952,0.0792,8.74,-1.64,-3.34,
36158,1661550345440,-1.2669,0.0464,0.1842,10.36,-4.26,-7.08,
36159,1661550345440,-1.302,0.1748,0.5626,8.76,-3.59,1.94,
36160,1661550345440,-1.2229,0.0513,0.2599,12.45,-7.99,0.58,
36161,1661550345440,-1.2024,0.0176,0.0084,14.94,-9.25,-4.99,
36162,1661550345441,-1.1536,0.0132,0.2619,12.45,8.51,-0.33,
36163,1661550345441,-1.1946,0.0513,0.3224,9.12,5.88,-4.53,
36164,1661550345442,-1.1502,0.0947,-0.2523,7.64,-1.23,-0.7,
36165,1661550345443,-1.1761,-0.0269,0.0543,15.44,-5.7,-0.43,
36166,1661550345443,-1.2185,0.0962,0.4118,17.45,-2.92,4.14,
36167,1661550345444,-1.0154,-0.0161,0.0709,13.56,-11.88,2.03,
36168,1661550345444,-1.1648,-0.0806,-0.2523,6.96,-11.97,0.49,
36169,1661550345445,-1.1043,0.103,0.7467,3.75,3.52,3.4,
36170,1661550345445,-1.1106,0.1875,0.2423,6.45,-7.39,3.13,
36171,1661550345446,-1.0091,0.2314,-0.0814,13.35,1.83,5.95,
36172,1661550345446,-0.9495,0.333,0.2877,15.26,7.65,1.3,
36173,1661550345447,-1.033,0.4297,0.525,19.64,15.44,3.22,
36174,1661550345447,-0.9007,0.4277,-0.0423,17.44,9.52,8.7,
36175,1661550345448,-0.9778,0.4429,-0.1127,12.25,4.45,4.96,
36176,1661550345448,-0.9295,0.6157,0.0524,14.25,2.16,1.94,
36177,1661550345448,-0.825,0.5019,0.0016,18.16,1.66,1.39,
36178,1661550345449,-0.8523,0.5933,-0.2396,20.66,2.25,0.31,
36179,1661550345449,-0.7952,0.5049,-0.1874,24.34,0.3,-2.44,
36180,1661550345450,-0.7742,0.3677,0.0382,20.74,8.17,-3.89,
36181,1661550345450,-0.7893,0.5283,0.1408,21.44,9.18,-6.71,
36182,1661550345451,-0.803,0.4018,-0.1781,25.25,6.48,-0.43,
36183,1661550345451,-0.7557,0.2393,-0.0106,24.44,13.0,0.67,
36184,1661550345451,-0.7991,0.2886,0.1022,29.14,12.06,2.85,
36185,1661550345452,-0.7381,0.1748,-0.0448,28.93,13.33,0.86,
36186,1661550345452,-0.7083,0.1348,-0.3719,26.03,2.67,-3.25,
36187,1661550345453,-0.823,0.1689,-0.0633,26.73,4.53,0.49,
36188,1661550345453,-0.5896,-0.1426,-0.1503,24.32,-0.13,-1.43,
36189,1661550345454,-0.7893,0.2456,-0.246,26.24,8.51,-0.15,
36190,1661550345454,-0.7244,-0.0625,-0.2147,25.43,2.83,3.68,
36191,1661550345455,-0.9539,-0.0049,-0.139,22.73,-14.07,2.76,
36192,1661550345455,-0.8211,0.0361,0.1823,23.34,-11.45,1.57,
36193,1661550345456,-0.8289,0.0933,-0.1044,27.24,-8.32,2.85,
36194,1661550345456,-0.8362,0.209,-0.0492,25.56,8.25,4.87,
36195,1661550345456,-0.9422,0.0503,0.1027,19.94,3.6,4.96,
36196,1661550345457,-0.9812,0.1035,0.0861,22.34,-1.13,1.85,
36197,1661550345457,-0.8431,0.168,-0.119,25.65,-9.34,-0.7,
36198,1661550345458,-0.9432,0.0303,-0.2538,30.84,-12.55,-2.26,
36199,1661550345458,-0.909,0.2969,-0.0487,28.85,-0.13,-2.07,
36200,1661550345459,-0.9876,-0.1284,-0.3636,24.64,-3.93,1.04,
36201,1661550345459,-0.9988,-0.0103,-0.1258,17.74,-10.18,-0.24,
36202,1661550345460,-1.0525,-0.0703,0.2594,16.65,-11.21,-1.89,
36203,1661550345460,-0.9842,-0.0786,-0.1742,19.83,-10.52,-6.36,
36204,1661550345461,-1.1018,-0.2061,-0.0912,19.35,-12.55,-0.88,
36205,1661550345461,-1.18,-0.3223,0.3341,20.34,-5.28,-4.16,
36206,1661550345462,-1.1775,-0.1328,0.3776,17.64,-8.66,-3.8,
36207,1661550345462,-1.1726,-0.2798,-0.2128,15.04,-0.2,-5.45,
36208,1661550345463,-1.2146,-0.2222,0.276,11.95,-0.54,-7.72,
36209,1661550345463,-1.1834,-0.0479,0.2482,9.64,-10.11,-7.17,
36210,1661550345464,-1.1336,-0.3164,-0.4295,13.55,-25.75,-7.26,
36211,1661550345464,-1.3211,-0.0015,0.4308,16.25,4.28,-8.82,
36212,1661550345465,-1.2347,-0.1323,0.4259,15.04,-6.46,-7.72,
36213,1661550345465,-1.3743,-0.1758,-0.0887,10.24,-15.86,-9.37,
36214,1661550345465,-1.2049,0.0547,0.2208,8.16,-13.48,-2.61,
36215,1661550345466,-1.325,0.0674,0.6461,11.37,-4.77,-0.88,
36216,1661550345466,-1.1502,0.1133,0.1022,12.14,-8.15,-1.8,
36217,1661550345467,-1.1775,0.0259,0.0783,10.74,-4.52,3.4,
36218,1661550345467,-1.1365,0.4448,0.7658,13.15,11.04,-6.27,
36219,1661550345468,-1.0174,0.2383,-0.1976,12.74,3.43,0.12,
36220,1661550345468,-1.1072,0.0737,-0.6371,13.76,-3.42,-2.79,
36221,1661550345469,-1.2547,0.3428,0.2326,8.45,2.83,-1.89,
36222,1661550345469,-1.0999,0.1572,0.3961,13.04,-3.42,2.4,
36223,1661550345469,-1.0257,0.1899,-0.4872,13.64,-14.67,-0.52,
36224,1661550345470,-1.0384,0.3374,0.3454,11.24,-5.62,3.4,
36225,1661550345470,-1.1463,0.3618,0.6334,13.66,3.6,-0.88,
36226,1661550345471,-0.9383,0.2222,0.0646,10.94,8.01,2.4,
36227,1661550345471,-0.9383,0.2026,-0.1244,11.64,11.47,5.05,
36228,1661550345471,-1.0721,0.3706,0.5885,12.94,16.79,2.4,
36229,1661550345471,-1.1331,0.4199,0.4992,19.04,5.79,1.66,
36230,1661550345472,-0.7576,0.1094,-0.3251,20.14,-4.77,-2.26,
36231,1661550345472,-1.0286,0.4121,0.0646,22.93,4.69,0.86,
36232,1661550345473,-0.7698,0.2529,0.2599,23.74,14.17,1.3,
36233,1661550345473,-0.9788,0.1343,-0.4623,23.83,-0.63,-0.52,
36234,1661550345474,-0.9378,0.2417,-0.2259,16.36,8.34,-0.61,
36235,1661550345474,-0.8323,0.3076,0.3209,20.26,-2.83,4.69,
36236,1661550345474,-0.7254,0.2954,-0.0633,23.74,0.13,0.22,
36237,1661550345475,-0.6033,0.352,-0.0692,27.04,2.67,0.76,
36238,1661550345475,-0.7913,0.5098,-0.0677,27.83,17.3,2.12,
36239,1661550345476,-0.8186,0.3716,-0.3138,26.03,10.04,1.48,
36240,1661550345476,-0.8138,0.1006,-0.0296,19.24,11.71,-0.98,
36241,1661550345477,-0.8753,0.7598,0.3312,25.74,7.82,-2.07,
36242,1661550345477,-0.5857,0.2441,-0.9159,28.93,-14.5,1.3,
36243,1661550345478,-0.8162,0.2378,-0.4408,29.83,-11.71,2.85,
36244,1661550345478,-0.8875,0.439,0.7218,25.74,11.55,-2.17,
36245,1661550345478,-0.802,0.2231,0.2106,25.76,3.93,1.39,
36246,1661550345479,-0.7474,0.1977,-1.0795,25.43,-3.67,-0.06,
36247,1661550345479,-0.9168,0.1811,0.3053,22.64,1.49,-1.8,
36248,1661550345480,-0.8929,0.2041,0.4137,22.44,3.6,0.58,
36249,1661550345480,-0.8245,-0.1304,-0.9154,26.24,-20.5,-0.88,
36250,1661550345481,-0.8553,-0.0796,0.2267,29.65,-0.97,-0.43,
36251,1661550345481,-0.9583,0.2046,0.778,27.14,7.65,-1.34,
36252,1661550345482,-0.9402,-0.0659,-0.2377,29.65,1.73,5.68,
36253,1661550345482,-0.9251,-0.356,-0.7088,21.24,-12.04,1.76,
36254,1661550345483,-1.0818,0.0454,0.5177,16.94,-6.55,-0.88,
36255,1661550345483,-0.8528,-0.3486,-0.1258,19.13,-18.73,5.4,
36256,1661550345483,-1.0486,-0.1543,-0.4559,23.24,-15.34,-0.43,
36257,1661550345484,-1.0916,-0.2759,0.5944,21.64,-1.06,-4.71,
36258,1661550345485,-1.2635,-0.2666,0.5914,16.86,-9.85,-6.0,
36259,1661550345485,-1.0213,0.0381,-0.0438,13.24,-18.99,-4.9,
36260,1661550345486,-1.1712,-0.2422,-0.1664,13.46,-17.13,-5.26,
36261,1661550345486,-1.1473,0.0181,0.3942,16.14,0.56,-3.89,
36262,1661550345486,-1.1956,-0.0737,0.109,17.26,-1.73,-0.15,
36263,1661550345488,-1.118,0.2041,-0.1156,15.94,-4.52,0.31,
36264,1661550345488,-1.1243,0.208,0.1735,14.23,-9.01,-3.71,
36265,1661550345488,-1.2342,-0.083,0.1935,9.84,-14.0,-3.34,
36266,1661550345488,-1.2596,0.04,0.0338,12.25,-10.35,-1.62,
36267,1661550345489,-1.1858,0.0796,0.1232,12.94,-7.05,-1.52,
36268,1661550345489,-1.2898,0.0283,0.36,10.04,-6.29,-2.44,
36269,1661550345490,-1.2635,0.1499,0.402,9.05,-4.26,-5.72,
36270,1661550345490,-1.179,0.0029,0.1608,10.45,-3.76,-2.17,
36271,1661550345490,-1.1526,-0.0552,0.0885,13.56,0.8,-7.99,
36272,1661550345491,-1.1424,0.0083,0.254,11.14,8.25,-3.8,
36273,1661550345491,-1.2176,0.0669,0.1896,7.55,3.0,-3.89,
36274,1661550345492,-1.1492,0.083,-0.1498,9.25,-3.16,-0.43,
36275,1661550345492,-1.1849,-0.0635,0.0548,14.85,-8.41,-3.07,
36276,1661550345493,-1.2493,0.0537,0.3009,18.84,-1.99,-1.89,
36277,1661550345493,-0.9891,-0.0166,0.0905,16.74,-11.45,3.22,
36278,1661550345495,-1.1956,-0.0005,-0.0355,10.54,-7.56,2.21,
36279,1661550345495,-1.0579,0.0718,0.6608,6.35,0.8,6.23,
36280,1661550345495,-1.0965,0.2397,0.2233,6.24,-3.26,3.13,
36281,1661550345496,-1.0193,0.2993,-0.0082,13.46,5.29,1.85,
36282,1661550345496,-0.9773,0.2407,0.2706,16.16,8.17,0.4,
36283,1661550345497,-1.01,0.4033,0.4103,18.14,11.04,1.76,
36284,1661550345497,-0.8919,0.5146,-0.0253,16.14,10.54,5.31,
36285,1661550345498,-0.9158,0.4233,-0.2616,14.45,6.82,2.58,
36286,1661550345498,-0.93,0.5527,-0.1766,13.95,4.69,-0.88,
36287,1661550345499,-0.8162,0.4917,0.0138,17.94,4.02,1.22,
36288,1661550345499,-0.8357,0.6152,-0.1629,21.65,3.52,-0.52,
36289,1661550345500,-0.7654,0.457,-0.3036,24.03,-2.4,5.95,
36290,1661550345500,-0.7806,0.4824,0.151,20.64,5.38,1.76,
36291,1661550345500,-0.781,0.5923,0.194,24.73,9.27,1.48,
36292,1661550345501,-0.8211,0.3511,-0.1893,28.44,9.68,-0.33,
36293,1661550345501,-0.7625,0.227,-0.0428,29.74,12.14,-0.79,
36294,1661550345501,-0.8167,0.3042,0.1271,26.14,12.4,-1.07,
36295,1661550345501,-0.6975,0.1284,-0.3187,26.03,4.62,-0.52,
36296,1661550345502,-0.7005,0.1602,-0.3978,26.84,2.25,-1.62,
36297,1661550345502,-0.7703,0.1138,-0.0282,28.73,6.82,2.12,
36298,1661550345504,-0.6057,-0.0772,-0.2098,26.24,0.39,-3.8,
36299,1661550345504,-0.846,0.1704,-0.2709,27.34,0.13,-0.7,
36300,1661550345504,-0.8011,-0.1284,-0.1566,22.34,-11.97,0.31,
36301,1661550345504,-0.9866,0.063,-0.0111,20.05,-13.91,4.04,
36302,1661550345504,-0.7742,0.0278,0.0753,28.14,1.15,1.94,
36303,1661550345505,-0.846,0.168,-0.0448,29.83,1.4,-0.79,
36304,1661550345505,-0.7737,0.209,-0.0204,29.94,2.83,-4.53,
36305,1661550345506,-0.9798,0.0044,0.0055,24.15,-7.39,-1.89,
36306,1661550345506,-0.9432,0.2959,0.0592,23.83,-7.05,-1.43,
36307,1661550345508,-0.8938,0.1685,-0.0355,27.14,-9.42,-0.7,
36308,1661550345508,-0.9114,0.0654,-0.2181,29.23,0.56,-3.52,
36309,1661550345509,-0.9134,0.3066,-0.1844,29.94,0.47,-3.98,
36310,1661550345509,-0.9402,-0.1685,-0.2152,24.75,-4.86,0.67,
36311,1661550345509,-1.0257,0.0137,0.0265,22.44,-14.5,-1.71,
36312,1661550345510,-1.1067,-0.1001,0.1085,17.04,-12.72,-0.33,
36313,1661550345510,-1.0203,-0.1177,-0.1874,19.15,-11.11,-4.71,
36314,1661550345511,-1.135,-0.2261,0.0475,17.04,-7.39,-1.71,
36315,1661550345511,-1.1419,-0.3418,0.3268,16.25,-7.39,-1.98,
36316,1661550345511,-1.1975,-0.1392,0.2223,16.54,-7.56,-0.61,
36317,1661550345511,-1.0931,-0.2798,-0.0653,14.74,0.56,-0.06,
36318,1661550345512,-1.2952,-0.1826,0.3527,12.24,-4.02,-2.7,
36319,1661550345512,-1.2317,-0.0928,0.1793,10.04,-12.3,-2.61,
36320,1661550345514,-1.2415,-0.3345,-0.3343,12.66,-25.75,-1.89,
36321,1661550345514,-1.3064,0.0532,0.5353,15.64,4.86,-3.61,
36322,1661550345515,-1.2835,-0.1157,0.2345,11.96,-9.08,-2.7,
36323,1661550345515,-1.3621,-0.1001,-0.1542,9.64,-14.93,-1.71,
36324,1661550345516,-1.2019,0.0737,0.3634,9.84,-13.83,-2.35,
36325,1661550345516,-1.3543,0.0561,0.5817,11.64,-5.7,-2.17,
36326,1661550345516,-1.1365,0.1465,0.047,16.25,-7.73,-4.81,
36327,1661550345516,-1.2083,0.0395,0.1403,13.24,-1.73,-2.53,
36328,1661550345516,-1.1609,0.3921,0.6144,9.37,11.71,-3.52,
36329,1661550345517,-1.1253,0.3154,0.2301,10.94,2.42,-7.63,
36330,1661550345517,-1.0462,0.0771,-0.5589,14.14,1.66,-2.35,
36331,1661550345518,-1.2298,0.3696,0.3571,11.06,6.31,-9.09,
36332,1661550345518,-1.1136,0.0967,0.276,12.46,-1.3,-0.98,
36333,1661550345520,-1.0652,0.1704,-0.4505,9.95,-15.26,-4.16,
36334,1661550345520,-1.0569,0.2949,-0.1185,10.66,-3.26,-1.89,
36335,1661550345520,-1.1477,0.3569,0.7125,15.24,7.58,-4.07,
36336,1661550345520,-0.9739,0.1465,-0.0414,16.66,4.53,0.49,
36337,1661550345520,-0.8992,0.1323,-0.0521,15.14,11.71,3.59,
36338,1661550345523,-1.0721,0.3906,0.6637,12.14,14.17,-0.06,
36339,1661550345523,-0.9046,0.1748,-0.0594,14.86,6.89,3.95,
36340,1661550345523,-0.7,0.1172,-0.4574,20.84,-2.74,-1.52,
36341,1661550345523,-1.0144,0.416,0.0685,21.54,10.71,2.12,
36342,1661550345523,-0.7576,0.2158,0.2291,24.53,10.71,-0.43,
36343,1661550345523,-0.9666,0.1543,-0.4618,21.44,-5.19,6.68,
36344,1661550345525,-0.8206,0.3076,0.131,17.44,0.22,3.77,
36345,1661550345525,-0.8606,0.3359,0.3029,23.05,-4.77,4.14,
36346,1661550345526,-0.6902,0.3237,-0.0462,26.35,7.65,3.59,
36347,1661550345526,-0.5935,0.3203,-0.0628,27.74,13.5,2.21,
36348,1661550345526,-0.7635,0.5019,-0.0878,26.64,17.63,1.04,
36349,1661550345527,-0.698,0.1841,-0.1224,25.85,1.23,2.21,
36350,1661550345528,-0.7478,0.2202,0.0802,23.25,-2.23,0.76,
36351,1661550345528,-0.7981,0.6973,0.0607,24.73,-3.76,-3.61,
36352,1661550345528,-0.5721,0.1963,-0.8509,28.26,-6.29,-3.71,
36353,1661550345529,-0.7425,0.3047,-0.0863,26.64,8.51,-3.71,
36354,1661550345529,-0.7923,0.3647,0.4816,25.54,13.93,-6.27,
36355,1661550345530,-0.742,0.2568,-0.12,30.65,-3.33,-0.43,
36356,1661550345530,-0.7029,0.1792,-0.8646,28.53,-8.75,-2.7,
36357,1661550345531,-0.951,0.1025,0.504,21.94,-4.09,-0.24,
36358,1661550345531,-0.8802,0.1997,0.2619,24.73,-2.16,-6.71,
36359,1661550345532,-0.865,-0.1636,-0.8753,25.45,-5.79,-3.52,
36360,1661550345532,-0.8435,0.0176,0.422,26.14,11.38,-5.35,
36361,1661550345532,-0.9602,0.2261,0.4249,26.34,0.97,-3.61,
36362,1661550345533,-0.8977,-0.1221,-0.3866,28.14,-13.83,-2.26,
36363,1661550345533,-0.9861,-0.2764,-0.6825,22.73,-21.61,-5.72,
36364,1661550345533,-1.0408,0.0449,0.7121,21.13,1.49,-1.71,
36365,1661550345533,-0.8904,-0.2588,-0.2113,21.24,-15.26,-4.35,
36366,1661550345535,-1.0354,-0.1641,-0.5716,21.74,-6.46,-0.98,
36367,1661550345535,-1.1497,-0.2739,0.6959,17.13,-9.94,-1.89,
36368,1661550345536,-1.0906,0.0464,0.3073,17.35,-12.72,-3.8,
36369,1661550345536,-1.0271,-0.1607,-0.4886,20.54,-16.96,-3.43,
36370,1661550345537,-1.1072,-0.1592,0.3292,14.46,1.9,-0.33,
36371,1661550345537,-1.1653,0.0561,0.6364,13.76,4.62,-5.17,
36372,1661550345538,-1.2083,-0.1357,-0.0726,15.26,-11.21,-0.79,
36373,1661550345538,-1.1287,0.1997,-0.328,15.44,-15.1,-4.62,
36374,1661550345539,-1.1658,0.1357,0.3952,14.34,-10.35,-1.52,
36375,1661550345539,-1.1971,-0.0601,0.2013,11.05,-6.38,-2.26,
36376,1661550345539,-1.1834,0.1899,-0.0404,10.36,-6.22,-0.24,
36377,1661550345540,-1.2952,-0.0151,0.3815,11.95,-8.08,1.66,
36378,1661550345540,-1.3265,0.0151,0.4933,11.56,-11.54,-0.7,
36379,1661550345541,-1.2947,0.1084,0.3659,9.95,-5.03,0.03,
36380,1661550345541,-1.221,-0.0752,0.1945,13.24,0.04,0.86,
36381,1661550345542,-1.2332,0.0395,0.2604,14.36,6.05,-4.35,
36382,1661550345542,-1.1502,0.0166,0.1681,13.04,8.42,0.4,
36383,1661550345543,-1.2229,0.0591,0.1017,8.25,5.72,-3.16,
36384,1661550345543,-1.0789,0.0444,-0.1346,12.65,-1.64,-2.17,
36385,1661550345544,-1.1707,-0.0762,0.0343,11.75,-9.85,-2.97,
36386,1661550345544,-1.1668,0.0889,0.2765,14.85,-5.19,-0.7,
36387,1661550345544,-1.1282,-0.0391,-0.1161,14.56,-16.53,-0.43,
36388,1661550345545,-1.1883,0.0176,0.4118,10.86,-2.57,4.41,
36389,1661550345545,-1.0335,0.0644,0.6256,9.46,2.76,1.48,
36390,1661550345546,-1.1097,0.2695,0.2257,10.66,0.73,-0.15,
36391,1661550345546,-0.908,0.2441,0.1378,12.05,7.32,6.68,
36392,1661550345547,-1.0916,0.2632,0.4538,14.04,7.15,1.94,
36393,1661550345547,-0.9485,0.4463,0.4489,15.04,12.4,2.03,
36394,1661550345548,-0.8396,0.5796,-0.0526,18.66,11.38,5.86,
36395,1661550345548,-0.8411,0.4072,-0.3944,17.26,13.83,-1.98,
36396,1661550345548,-0.8797,0.5366,0.0499,17.94,9.35,1.04,
36397,1661550345549,-0.8557,0.5078,0.1481,17.44,5.72,-2.44,
36398,1661550345549,-0.784,0.6182,-0.284,21.54,-3.16,-1.89,
36399,1661550345550,-0.7176,0.4307,-0.3827,22.14,-2.66,1.04,
36400,1661550345550,-0.7537,0.5474,0.3312,24.84,11.04,-3.25,
36401,1661550345551,-0.7796,0.478,-0.0873,27.14,10.11,-1.07,
36402,1661550345551,-0.6678,0.1728,-0.2962,27.94,9.94,-3.61,
36403,1661550345551,-0.7405,0.2485,0.0153,24.55,9.94,-0.15,
36404,1661550345551,-0.8518,0.3154,0.2169,24.53,9.52,-6.36,
36405,1661550345552,-0.6853,0.0752,-0.4901,27.25,-3.5,-3.16,
36406,1661550345552,-0.8929,0.1982,-0.267,27.94,0.8,-2.53,
36407,1661550345552,-0.5701,-0.0376,0.0768,26.24,0.13,-2.17,
36408,1661550345554,-0.8289,0.1523,-0.3265,23.74,-6.38,-4.81,
36409,1661550345554,-0.7698,0.1162,-0.3153,25.94,-1.3,-3.25,
36410,1661550345554,-0.824,-0.0547,-0.1278,25.45,-8.15,0.95,
36411,1661550345554,-0.9446,0.0552,0.0993,26.34,0.64,-4.53,
36412,1661550345555,-0.8103,0.0781,-0.0272,21.94,-11.37,-3.8,
36413,1661550345555,-0.9002,0.2578,-0.1522,24.53,-1.64,-6.45,
36414,1661550345556,-0.8074,0.0879,0.048,27.63,1.4,-4.99,
36415,1661550345556,-1.0061,0.0283,0.0099,28.73,0.39,-6.9,
36416,1661550345558,-0.9109,0.2852,-0.0438,27.63,-1.3,-4.9,
36417,1661550345558,-0.9349,0.0698,-0.2108,23.56,-12.47,-2.7,
36418,1661550345559,-0.9173,0.2715,-0.1371,25.04,-10.78,-8.45,
36419,1661550345559,-0.8665,-0.0259,-0.1781,27.34,-7.73,-1.8,
36420,1661550345559,-0.9671,-0.044,-0.0497,22.84,-2.06,-5.9,
36421,1661550345560,-1.0755,-0.0269,0.1242,17.56,-7.73,-3.25,
36422,1661550345560,-1.0506,-0.1587,0.0607,15.94,-8.92,-3.34,
36423,1661550345561,-1.0398,-0.186,-0.1087,22.15,-9.59,-1.16,
36424,1661550345561,-1.1365,-0.273,-0.0038,20.54,1.83,-3.43,
36425,1661550345562,-1.1502,-0.189,0.34,14.04,-7.73,-5.45,
36426,1661550345562,-1.2513,-0.1265,0.0119,12.56,-13.65,-4.35,
36427,1661550345563,-1.0428,-0.3281,0.0504,16.84,-15.26,-1.07,
36428,1661550345563,-1.3406,0.0171,0.3527,14.65,2.67,-2.7,
36429,1661550345564,-1.0823,-0.3716,-0.1537,13.55,-8.24,-3.52,
36430,1661550345564,-1.3831,-0.1201,0.2267,8.94,-18.82,-0.33,
36431,1661550345565,-1.243,-0.0064,0.6168,10.95,-14.24,-4.16,
36432,1661550345565,-1.3211,-0.0991,0.1657,17.06,-14.84,-1.43,
36433,1661550345566,-1.3221,0.062,0.1041,10.34,-0.71,-1.98,
36434,1661550345566,-1.3509,0.0513,0.7301,4.74,-1.73,-2.35,
36435,1661550345566,-1.2454,0.1504,0.2506,11.46,-3.16,-1.25,
36436,1661550345566,-1.118,0.1206,-0.0013,15.14,-6.12,-1.89,
36437,1661550345566,-1.1575,0.291,0.5319,14.14,5.46,-2.53,
36438,1661550345568,-1.1932,0.3545,0.3986,11.46,5.29,-1.71,
36439,1661550345568,-1.0638,0.1528,-0.3773,11.84,-7.05,-5.54,
36440,1661550345568,-1.1731,0.2334,0.0177,10.54,-3.0,-3.07,
36441,1661550345568,-1.1243,0.2764,0.57,13.35,3.35,-0.52,
36442,1661550345569,-1.0418,0.146,-0.2176,12.04,-4.09,-3.61,
36443,1661550345570,-1.0086,0.2812,0.0026,12.75,-5.45,-2.07,
36444,1661550345570,-1.0516,0.293,0.5202,11.55,8.08,-0.15,
36445,1661550345570,-0.9432,0.1899,0.3366,15.36,5.21,-1.16,
36446,1661550345570,-0.9705,0.1133,-0.3236,12.86,1.66,-0.33,
36447,1661550345571,-1.0432,0.2998,0.4289,12.36,11.13,-4.44,
36448,1661550345571,-1.1736,0.3393,0.3483,15.06,15.36,-1.89,
36449,1661550345572,-0.8308,0.1328,-0.201,20.45,5.63,-2.07,
36450,1661550345572,-0.9407,0.2637,-0.3016,18.84,3.43,1.04,
36451,1661550345574,-0.8694,0.3032,0.4181,21.94,6.98,0.49,
36452,1661550345574,-0.9075,0.1484,-0.306,22.64,-9.68,1.66,
36453,1661550345574,-0.8772,0.2402,-0.1937,24.14,4.53,2.85,
36454,1661550345574,-0.7752,0.3442,0.1491,19.56,9.1,-0.79,
36455,1661550345575,-0.8123,0.418,0.1247,22.84,8.85,6.23,
36456,1661550345575,-0.6355,0.3286,-0.2167,25.74,2.42,4.59,
36457,1661550345575,-0.7679,0.4106,-0.1175,25.63,2.42,1.39,
36458,1661550345577,-0.8103,0.5308,-0.1044,26.75,-4.77,-0.33,
36459,1661550345577,-0.7557,0.231,-0.0189,27.63,3.76,2.03,
36460,1661550345578,-0.698,0.6523,0.1217,26.64,16.29,-1.98,
36461,1661550345578,-0.5403,0.4248,-0.5272,23.74,7.75,-0.15,
36462,1661550345579,-0.7063,0.187,-0.5086,25.04,-8.84,-0.88,
36463,1661550345579,-0.8006,0.4351,0.3737,25.14,-2.16,-1.16,
36464,1661550345580,-0.7332,0.2739,0.2404,26.34,-4.02,-1.25,
36465,1661550345580,-0.7923,0.2661,-0.6932,30.53,-9.08,-2.61,
36466,1661550345580,-0.845,0.0986,-0.0433,24.03,1.06,-1.25,
36467,1661550345581,-0.8567,0.166,0.5158,19.65,10.71,-5.45,
36468,1661550345582,-0.8006,0.0107,-0.7157,26.15,-11.88,-4.71,
36469,1661550345582,-0.8938,-0.1934,-0.2879,28.65,-4.09,-2.07,
36470,1661550345582,-0.9969,0.2432,0.5797,27.54,4.19,-5.45,
36471,1661550345583,-0.9334,0.1645,0.193,30.24,-8.66,-0.43,
36472,1661550345583,-0.8684,-0.374,-0.8441,24.53,-21.52,-3.8,
36473,1661550345583,-1.1448,-0.0327,0.2584,21.54,-4.6,0.67,
36474,1661550345583,-0.8494,-0.2295,0.4596,21.85,-0.54,0.86,
36475,1661550345584,-1.0706,-0.1675,-0.6395,22.34,-19.4,-4.07,
36476,1661550345584,-1.1043,-0.2964,0.2804,24.15,-11.11,-5.81,
36477,1661550345585,-1.2781,-0.145,0.6823,24.44,-5.19,-6.36,
36478,1661550345585,-1.073,0.042,0.2238,19.13,-11.04,-4.62,
36479,1661550345586,-1.0891,-0.2188,-0.4725,15.06,-18.06,-3.34,
36480,1661550345586,-1.1346,-0.0942,0.4093,15.04,-1.56,-6.18,
36481,1661550345587,-1.0867,0.0552,0.3356,15.26,-5.36,-3.61,
36482,1661550345587,-1.0691,-0.0469,-0.5331,14.45,-6.29,-0.24,
36483,1661550345587,-1.201,0.2305,0.216,16.84,-2.06,-2.7,
36484,1661550345589,-1.2542,-0.1802,0.3688,13.06,-12.21,2.76,
36485,1661550345589,-1.2913,0.1392,-0.2054,12.14,-20.25,0.12,
36486,1661550345589,-1.1927,0.1587,-0.0433,9.84,-12.21,-2.17,
36487,1661550345589,-1.3426,-0.0415,0.466,14.46,2.76,-5.72,
36488,1661550345590,-1.2986,0.0723,0.3297,15.06,-0.71,-3.61,
36489,1661550345590,-1.2244,0.0117,0.1383,12.14,0.9,0.03,
36490,1661550345591,-1.2469,-0.0107,0.2599,14.66,0.8,-3.98,
36491,1661550345591,-1.2727,0.0312,0.3327,14.04,0.64,0.4,
36492,1661550345593,-1.1814,-0.001,0.1784,9.35,-0.54,-2.07,
36493,1661550345593,-1.2386,0.1118,-0.0741,9.96,-1.13,-3.07,
36494,1661550345593,-1.034,-0.1597,-0.0428,13.66,-5.19,-2.35,
36495,1661550345594,-1.2508,0.063,0.3136,16.45,-2.92,-2.97,
36496,1661550345594,-0.9944,0.0459,0.0377,11.75,-5.03,1.94,
36497,1661550345595,-1.1272,0.021,-0.1459,11.05,-12.64,-4.99,
36498,1661550345595,-1.1473,0.0444,0.4396,8.85,-0.97,5.14,
36499,1661550345596,-1.0872,0.2314,0.4821,6.94,-2.83,-0.15,
36500,1661550345596,-0.9715,0.2798,-0.0843,10.74,1.57,-2.17,
36501,1661550345597,-0.9851,0.2515,0.2775,16.04,8.59,0.12,
36502,1661550345597,-1.0633,0.313,0.4694,17.55,14.09,-0.24,
36503,1661550345597,-0.9192,0.606,0.13,18.45,9.35,1.85,
36504,1661550345598,-0.8963,0.3989,-0.5677,15.35,-2.23,-2.26,
36505,1661550345598,-0.9573,0.4746,-0.0658,15.35,0.73,2.31,
36506,1661550345599,-0.9046,0.519,0.2789,15.85,6.72,-2.79,
36507,1661550345599,-0.9016,0.5635,-0.034,19.26,1.15,0.76,
36508,1661550345600,-0.8035,0.4805,-0.5619,24.93,-5.36,4.23,
36509,1661550345600,-0.844,0.4165,0.2189,22.93,7.15,0.22,
36510,1661550345601,-0.805,0.5576,0.2594,23.44,6.56,-0.98,
36511,1661550345601,-0.7703,0.4214,-0.1952,26.93,4.11,2.21,
36512,1661550345601,-0.656,0.1616,-0.2582,27.94,11.9,-1.71,
36513,1661550345603,-0.8152,0.3467,0.3312,27.24,15.1,-0.52,
36514,1661550345603,-0.6394,0.1411,-0.286,25.76,9.68,1.66,
36515,1661550345603,-0.7532,0.1484,-0.5072,24.66,-2.92,-1.8,
36516,1661550345604,-0.7058,0.0366,0.1295,29.05,2.92,-1.16,
36517,1661550345604,-0.5188,-0.0488,-0.0243,28.55,-6.29,-2.88,
36518,1661550345604,-0.8655,0.1816,-0.3744,25.63,1.15,-4.81,
36519,1661550345605,-0.639,-0.0273,-0.0243,21.44,-3.09,-2.7,
36520,1661550345605,-0.969,0.0225,-0.0472,20.54,-11.88,-2.07,
36521,1661550345606,-0.7234,0.0527,0.0397,27.54,-4.43,-1.62,
36522,1661550345606,-0.9012,0.2832,-0.0917,27.24,-0.97,-1.52,
36523,1661550345607,-0.7112,0.146,0.0006,26.44,9.35,-1.8,
36524,1661550345607,-0.8743,0.0176,0.0001,24.44,-0.37,-6.09,
36525,1661550345608,-0.8953,0.271,0.0343,25.24,0.9,-7.63,
36526,1661550345608,-0.8426,0.1528,-0.1019,27.36,-9.94,-9.64,
36527,1661550345609,-0.9031,0.1392,-0.2333,29.14,-8.24,-13.75,
36528,1661550345609,-0.9383,0.1973,-0.201,26.53,-6.46,-10.37,
36529,1661550345609,-0.993,-0.1382,-0.0345,24.93,-5.12,-5.45,
36530,1661550345610,-1.0989,0.0146,0.0368,25.25,-14.07,-4.71,
36531,1661550345610,-1.1106,-0.1138,0.0255,22.05,-4.09,-2.61,
36532,1661550345611,-1.0384,-0.1934,0.0431,17.94,-6.46,-5.35,
36533,1661550345611,-1.0867,-0.1416,-0.0838,16.94,-8.15,-5.54,
36534,1661550345612,-1.1097,-0.3418,0.2164,19.44,-11.88,-2.26,
36535,1661550345612,-1.2547,-0.1001,0.1642,17.93,-5.88,-4.16,
36536,1661550345613,-1.0574,-0.3491,-0.016,15.35,-3.26,-1.52,
36537,1661550345613,-1.3924,-0.1201,0.2291,13.14,-5.88,-2.97,
36538,1661550345614,-1.135,-0.2354,0.0446,12.14,-16.44,-0.43,
36539,1661550345614,-1.3308,-0.2983,-0.1336,14.85,-23.55,0.12,
36540,1661550345615,-1.304,-0.0039,0.3434,15.06,4.86,-3.52,
36541,1661550345615,-1.2317,0.0171,0.4987,10.74,-15.51,-2.07,
36542,1661550345616,-1.3191,-0.105,-0.1185,10.66,-15.1,1.3,
36543,1661550345616,-1.2596,0.1025,0.5436,10.65,-6.22,-5.45,
36544,1661550345616,-1.3206,0.0561,0.4728,13.75,2.25,-2.61,
36545,1661550345616,-1.1482,0.1343,-0.0277,14.94,-0.29,-2.53,
36546,1661550345617,-1.2132,0.1216,0.3307,12.25,1.99,4.96,
36547,1661550345617,-1.137,0.2793,0.4943,9.26,0.8,1.13,
36548,1661550345617,-1.0496,0.2505,-0.0238,10.34,-5.28,-2.44,
36549,1661550345618,-1.0955,0.083,-0.1854,15.64,-5.19,-0.98,
36550,1661550345618,-1.2005,0.293,0.5055,12.54,7.08,-3.43,
36551,1661550345619,-1.0774,0.2441,0.4342,13.26,0.97,-0.79,
36552,1661550345619,-1.0379,0.1304,-0.2645,9.76,-4.43,-2.17,
36553,1661550345621,-1.0735,0.27,0.2081,9.15,0.73,1.85,
36554,1661550345621,-1.0882,0.3242,0.5646,14.86,4.62,-2.88,
36555,1661550345621,-0.9768,0.1484,-0.2792,17.94,0.13,-1.25,
36556,1661550345621,-0.9685,0.1206,-0.2992,16.45,5.79,5.22,
36557,1661550345621,-1.0579,0.3174,0.5441,13.96,16.54,-2.35,
36558,1661550345622,-1.1067,0.2954,0.1701,16.45,10.97,2.12,
36559,1661550345622,-0.763,0.1475,-0.6063,17.84,-1.73,-3.43,
36560,1661550345623,-0.9964,0.3345,0.2965,20.54,7.24,1.22,
36561,1661550345623,-0.826,0.2739,0.5153,22.25,11.55,5.95,
36562,1661550345624,-0.9456,0.1948,-0.3446,22.26,-9.59,2.21,
36563,1661550345624,-0.8616,0.2231,-0.2064,17.84,2.5,7.97,
36564,1661550345624,-0.909,0.4126,0.3737,16.14,1.15,-1.07,
36565,1661550345625,-0.7586,0.478,0.255,20.25,9.18,-1.07,
36566,1661550345625,-0.5794,0.3237,-0.287,26.24,6.39,-0.33,
36567,1661550345627,-0.7249,0.4072,-0.1795,27.63,18.4,-2.44,
36568,1661550345627,-0.6785,0.418,0.1032,25.24,12.4,0.76,
36569,1661550345628,-0.6424,0.4062,-0.0565,22.34,0.04,-6.8,
36570,1661550345628,-0.657,0.5644,-0.5443,27.24,-3.76,-6.8,
36571,1661550345629,-0.5657,0.3218,-0.6307,25.43,-1.99,-3.07,
36572,1661550345629,-0.7469,0.2412,-0.2601,26.44,11.13,-4.62,
36573,1661550345629,-0.8484,0.4155,0.1896,27.24,3.0,-4.26,
36574,1661550345630,-0.8118,0.2026,-0.4686,27.25,-6.55,-6.62,
36575,1661550345630,-0.743,0.1396,-0.222,30.04,-6.12,-4.35,
36576,1661550345631,-0.8953,0.0664,0.507,23.04,5.88,-0.98,
36577,1661550345631,-0.8348,0.1133,0.2477,23.54,3.26,-3.98,
36578,1661550345632,-0.7967,-0.0513,-0.6415,26.34,-4.43,-9.83,
36579,1661550345632,-0.8377,-0.146,0.0509,27.43,2.59,-4.53,
36580,1661550345633,-0.9886,0.2212,0.4059,29.94,-3.93,-9.46,
36581,1661550345633,-0.8977,-0.2617,-0.6,32.44,-15.0,0.22,
36582,1661550345634,-1.094,-0.2886,-0.2098,26.34,-16.79,-6.53,
36583,1661550345634,-0.9427,-0.0606,0.7106,19.55,0.3,-2.53,
36584,1661550345635,-0.8611,-0.1699,0.2374,19.35,-18.39,-3.34,
36585,1661550345635,-1.0423,-0.2017,-0.6058,23.04,-17.72,0.31,
36586,1661550345636,-1.1238,-0.2866,0.5597,21.64,-11.11,-1.52,
36587,1661550345636,-1.1658,-0.1055,0.5919,21.24,-5.79,-3.25,
36588,1661550345636,-0.9827,-0.0566,-0.494,18.14,-10.01,-2.44,
36589,1661550345636,-1.1599,-0.3174,0.0612,16.36,0.39,-0.33,
36590,1661550345637,-1.1766,0.1079,0.6447,14.23,1.15,-2.07,
36591,1661550345637,-1.1761,-0.1533,-0.495,16.92,-9.85,-1.8,
36592,1661550345639,-1.241,0.2451,-0.1839,18.84,-17.2,-0.33,
36593,1661550345639,-1.2317,0.2036,0.4118,15.35,-11.71,-0.33,
36594,1661550345639,-1.2542,-0.1743,0.3893,9.66,-11.21,4.23,
36595,1661550345639,-1.2864,0.1484,-0.1429,9.95,-11.54,-0.43,
36596,1661550345640,-1.3396,0.0483,0.3825,10.54,-3.26,-1.07,
36597,1661550345640,-1.3177,0.0166,0.6183,14.04,-1.64,1.66,
36598,1661550345641,-1.2459,0.0332,0.2243,13.64,-2.16,-2.26,
36599,1661550345642,-1.2293,0.0264,0.1095,14.54,1.57,-0.88,
36600,1661550345642,-1.2723,0.0493,0.2809,12.34,4.02,-5.08,
36601,1661550345642,-1.1057,0.0185,0.2189,9.66,3.26,-1.8,
36602,1661550345643,-1.2766,0.1265,-0.036,9.64,-1.56,-5.81,
36603,1661550345644,-1.0188,-0.0713,-0.1166,13.14,-6.89,-1.98,
36604,1661550345644,-1.074,-0.1709,-0.0585,16.54,-11.21,0.49,
36605,1661550345644,-1.2415,0.0908,0.3976,13.55,-3.16,-1.89,
36606,1661550345645,-1.0281,0.0513,0.0812,12.24,-13.57,0.4,
36607,1661550345645,-1.2244,-0.0142,0.1149,11.75,-5.88,-4.07,
36608,1661550345646,-1.0232,0.1309,0.7731,10.04,8.34,-0.43,
36609,1661550345646,-1.0066,0.3208,0.0963,9.86,5.98,-2.44,
36610,1661550345647,-0.9266,0.2939,-0.1708,10.74,8.75,3.13,
36611,1661550345647,-1.0057,0.2895,0.2448,13.37,10.54,3.59,
36612,1661550345648,-0.9109,0.5703,0.4284,14.45,15.27,-0.98,
36613,1661550345648,-0.8172,0.5498,-0.5067,17.44,8.34,2.21,
36614,1661550345648,-0.868,0.4282,-0.3729,16.86,4.86,-6.18,
36615,1661550345649,-0.949,0.5234,0.1207,15.96,7.15,-2.44,
36616,1661550345649,-0.8787,0.5337,0.258,17.44,4.62,1.85,
36617,1661550345650,-0.7459,0.5195,-0.5755,23.04,-5.45,-3.52,
36618,1661550345650,-0.7942,0.3931,0.0358,25.43,4.36,1.85,
36619,1661550345651,-0.8601,0.4614,0.549,26.64,14.09,-3.8,
36620,1661550345651,-0.742,0.4326,0.0446,23.63,6.82,-3.25,
36621,1661550345652,-0.719,0.1367,-0.5179,24.46,10.87,-2.26,
36622,1661550345652,-0.8089,0.2568,0.3869,25.24,16.37,-3.07,
36623,1661550345652,-0.7937,0.2202,-0.035,29.05,11.04,-5.63,
36624,1661550345653,-0.637,0.0576,-0.8255,30.26,-6.12,-3.61,
36625,1661550345653,-0.7976,0.1572,-0.4813,27.56,4.86,0.22,
36626,1661550345655,-0.6448,-0.0225,0.2389,23.74,2.33,-6.0,
36627,1661550345655,-0.7688,0.0488,-0.4584,25.04,-12.64,-3.89,
36628,1661550345655,-0.6604,0.0757,-0.2098,24.95,-2.06,-2.17,
36629,1661550345655,-0.9734,0.0073,0.007,23.44,-6.89,1.3,
36630,1661550345656,-0.8157,0.0254,0.0861,24.55,4.11,1.3,
36631,1661550345656,-0.742,0.1191,-0.0057,23.65,-3.93,-5.08,
36632,1661550345657,-0.8899,0.3032,-0.1244,25.83,-2.16,-5.9,
36633,1661550345657,-0.7342,0.1577,0.0421,27.34,-4.52,-5.81,
36634,1661550345657,-1.0149,0.0698,-0.1166,27.16,-1.56,-6.36,
36635,1661550345658,-0.9119,0.229,-0.1219,27.24,-3.67,-8.36,
36636,1661550345658,-0.99,0.0952,-0.0965,23.34,-7.99,-6.36,
36637,1661550345659,-0.9388,0.2358,-0.1942,25.43,-13.14,-7.35,
36638,1661550345659,-0.8807,0.1304,-0.2049,26.34,-14.17,-4.44,
36639,1661550345660,-0.9539,-0.0933,0.0553,24.44,-3.59,-5.54,
36640,1661550345660,-1.0965,-0.0166,0.1378,21.54,-3.76,-2.79,
36641,1661550345661,-1.073,-0.2134,0.1251,18.14,-7.05,-3.71,
36642,1661550345661,-1.0096,-0.1729,-0.159,18.14,-11.11,-2.53,
36643,1661550345662,-1.0696,-0.3252,0.0744,23.83,2.16,1.3,
36644,1661550345662,-1.1814,-0.1797,0.2038,20.74,1.15,-3.52,
36645,1661550345663,-1.1966,-0.1821,-0.1268,17.65,-5.62,-1.89,
36646,1661550345663,-1.0286,-0.3687,-0.1014,12.14,-20.42,-1.16,
36647,1661550345664,-1.3841,-0.0894,0.2238,15.55,-5.7,-0.43,
36648,1661550345664,-1.1057,-0.2979,-0.0023,15.84,-6.38,2.85,
36649,1661550345664,-1.3167,-0.2188,-0.0384,9.95,-14.24,3.13,
36650,1661550345666,-1.2215,0.0957,0.6979,8.96,-12.47,3.86,
36651,1661550345666,-1.3543,-0.1099,0.0534,10.54,-25.91,1.57,
36652,1661550345666,-1.3367,0.0737,0.2545,15.94,-9.51,1.3,
36653,1661550345666,-1.3123,0.0923,0.609,13.24,1.32,3.59,
36654,1661550345667,-1.3064,0.082,0.5392,13.44,7.24,1.94,
36655,1661550345667,-1.1433,0.1875,0.0123,11.24,2.67,-0.98,
36656,1661550345668,-1.1922,0.1338,0.1876,11.24,7.32,-1.52,
36657,1661550345668,-1.1121,0.3057,0.3278,12.24,5.79,-4.26,
36658,1661550345669,-1.0403,0.3018,0.0509,14.45,-2.16,1.57,
36659,1661550345669,-1.1082,0.0937,-0.1503,14.23,-3.93,-0.79,
36660,1661550345670,-1.1326,0.2895,0.4118,11.66,-1.23,0.58,
36661,1661550345670,-1.1004,0.1758,0.0871,11.75,-5.28,-2.44,
36662,1661550345670,-1.0467,0.1016,-0.1986,10.74,-7.05,1.39,
36663,1661550345671,-1.0696,0.2456,0.1564,15.64,9.68,-2.61,
36664,1661550345671,-1.0506,0.2207,0.5402,14.16,11.64,4.78,
36665,1661550345672,-1.0408,0.1435,-0.2206,15.14,3.69,5.14,
36666,1661550345672,-0.9173,0.209,0.1281,14.34,7.15,3.22,
36667,1661550345673,-1.0857,0.271,0.5436,12.04,8.08,2.4,
36668,1661550345673,-1.0555,0.2632,0.1652,16.25,3.6,2.49,
36669,1661550345674,-0.8118,0.1255,-0.5619,17.55,-4.09,2.85,
36670,1661550345674,-0.9754,0.2632,0.3346,18.93,9.44,-1.16,
36671,1661550345674,-0.7727,0.2637,0.5695,18.84,10.62,-1.62,
36672,1661550345675,-0.97,0.2236,-0.3255,22.03,-4.35,4.14,
36673,1661550345675,-0.8601,0.2251,-0.182,20.03,-5.7,-0.52,
36674,1661550345676,-0.9456,0.4585,0.4362,22.34,1.57,1.85,
36675,1661550345676,-0.7542,0.4141,0.026,24.86,10.11,2.4,
36676,1661550345677,-0.5603,0.2842,-0.3705,27.04,8.17,1.66,
36677,1661550345677,-0.7239,0.4609,-0.0663,23.45,16.79,2.03,
36678,1661550345677,-0.6971,0.3857,0.2311,22.73,7.32,-2.35,
36679,1661550345678,-0.6375,0.4394,-0.2142,23.36,-5.45,2.67,
36680,1661550345678,-0.6399,0.4932,-0.5785,26.24,-10.87,-0.24,
36681,1661550345679,-0.6912,0.1538,-0.4198,25.54,4.02,-1.07,
36682,1661550345679,-0.7342,0.2656,-0.1922,25.43,11.3,-5.54,
36683,1661550345680,-0.8391,0.3271,-0.0462,26.14,-1.3,-0.15,
36684,1661550345680,-0.8089,0.2158,-0.454,27.54,-12.21,-2.7,
36685,1661550345681,-0.7561,0.103,-0.1957,29.45,-6.89,-2.26,
36686,1661550345681,-0.868,0.0644,0.3517,25.04,10.45,-4.16,
36687,1661550345682,-0.8304,0.0942,-0.2953,23.54,0.73,-7.9,
36688,1661550345682,-0.866,-0.1607,-0.3959,22.44,-6.55,-5.9,
36689,1661550345683,-0.7937,-0.0942,0.1168,25.63,-0.8,-4.81,
36690,1661550345683,-0.9764,0.2397,0.3502,28.35,2.16,-7.72,
36691,1661550345683,-0.8914,-0.3301,-0.5438,30.55,-11.11,-3.25,
36692,1661550345683,-1.1809,-0.2564,-0.1009,23.83,-13.23,-6.53,
36693,1661550345684,-0.9646,-0.0508,0.7316,22.55,-8.32,-5.81,
36694,1661550345684,-0.9925,-0.1255,-0.4745,22.54,-27.94,-0.15,
36695,1661550345686,-1.0022,-0.2539,-0.142,23.24,-7.22,-5.45,
36696,1661550345686,-1.2488,-0.1773,0.7711,17.74,3.86,-0.7,
36697,1661550345686,-1.0467,0.0469,-0.1542,22.26,-1.56,-7.81,
36698,1661550345688,-0.9495,-0.1211,-0.6058,22.93,-14.07,-2.97,
36699,1661550345688,-1.1018,-0.2329,0.09,15.14,-1.23,-4.99,
36700,1661550345688,-1.1077,0.1182,0.4977,10.94,-2.66,-2.44,
36701,1661550345688,-1.1473,-0.168,-0.5878,12.85,-15.77,-2.44,
36702,1661550345688,-1.3064,0.2246,-0.0619,16.84,-13.48,-2.53,
36703,1661550345688,-1.2669,-0.0947,0.5539,17.35,-10.27,-3.71,
36704,1661550345689,-1.2625,0.0806,-0.0282,10.45,-11.97,-3.98,
36705,1661550345689,-1.2366,0.0537,0.2291,8.96,-10.27,-4.71,
36706,1661550345691,-1.2976,-0.0669,0.6769,11.95,-2.57,-3.71,
36707,1661550345691,-1.2503,0.0044,0.4923,11.44,0.39,-3.52,
36708,1661550345691,-1.2141,0.0454,0.1574,15.55,6.56,-5.45,
36709,1661550345692,-1.284,-0.0166,0.2599,14.95,6.72,-3.52,
36710,1661550345692,-1.2449,0.0225,0.2516,12.54,1.83,-2.79,
36711,1661550345693,-1.3142,0.0268,0.0885,10.94,-3.26,-2.07,
36712,1661550345693,-1.3147,0.1206,0.0685,12.65,-6.72,-1.71,
36713,1661550345694,-0.9881,-0.1021,-0.0243,15.14,-10.27,-4.26,
36714,1661550345694,-1.1912,-0.0488,0.2243,10.34,-7.05,2.49,
36715,1661550345695,-1.0047,0.1543,0.3585,14.83,-3.93,3.13,
36716,1661550345695,-1.1751,-0.0073,-0.0379,15.94,-5.96,3.13,
36717,1661550345696,-1.0672,0.0454,0.5714,12.95,8.59,3.86,
36718,1661550345696,-1.0686,0.1899,0.6539,6.86,4.95,3.31,
36719,1661550345696,-0.9861,0.2886,0.0314,5.06,5.72,4.04,
36720,1661550345697,-0.8875,0.2974,0.0436,9.66,8.42,-0.88,
36721,1661550345697,-0.9451,0.3901,0.3771,11.55,10.78,7.78,
36722,1661550345698,-0.8997,0.585,0.1798,17.84,6.22,3.13,
36723,1661550345698,-0.8006,0.4888,-0.4745,21.35,-1.9,-0.43,
36724,1661550345699,-0.9046,0.396,-0.0887,20.03,4.69,2.12,
36725,1661550345699,-0.887,0.5142,0.2877,16.26,3.69,-3.43,
36726,1661550345700,-0.8909,0.5019,0.0568,15.24,1.15,0.49,
36727,1661550345700,-0.7781,0.4443,-0.4003,22.03,-1.47,-1.07,
36728,1661550345700,-0.9075,0.314,0.1998,23.94,10.97,0.76,
36729,1661550345701,-0.8557,0.4492,0.3639,28.15,13.93,-0.88,
36730,1661550345701,-0.7952,0.2978,-0.3988,27.94,4.86,-0.06,
36731,1661550345702,-0.6809,0.1792,-0.3187,21.54,7.08,1.13,
36732,1661550345702,-0.8142,0.2519,0.2951,19.83,7.32,0.31,
36733,1661550345703,-0.6775,0.1714,-0.2582,20.45,2.5,1.22,
36734,1661550345703,-0.6492,0.0967,-0.7308,26.43,-9.18,4.96,
36735,1661550345704,-0.7918,0.0879,0.0387,31.16,3.18,-0.88,
36736,1661550345704,-0.5467,-0.0493,0.1085,28.44,-3.5,7.6,
36737,1661550345704,-0.9016,0.0845,-0.4178,22.93,-8.32,2.76,
36738,1661550345705,-0.6692,0.0527,-0.1253,20.34,-5.53,4.41,
36739,1661550345705,-1.0096,0.0303,-0.0306,24.55,-13.48,4.59,
36740,1661550345706,-0.7488,0.064,0.1378,26.44,2.76,7.14,
36741,1661550345706,-0.72,0.1963,-0.0687,27.34,-9.25,3.95,
36742,1661550345707,-0.7889,0.2471,-0.2337,24.53,1.66,-1.89,
36743,1661550345707,-0.7356,0.1977,0.0988,27.63,6.31,1.57,
36744,1661550345708,-0.888,0.1226,-0.1835,27.94,3.69,-0.15,
36745,1661550345708,-0.9139,0.1416,-0.2362,26.15,-5.53,-7.99,
36746,1661550345709,-0.9163,0.1597,-0.0414,24.24,-8.66,-7.26,
36747,1661550345709,-0.8899,0.1753,-0.0785,25.56,-17.89,-6.09,
36748,1661550345710,-0.9285,0.0146,-0.287,24.93,-18.82,-2.35,
36749,1661550345710,-1.0721,0.042,0.2916,22.46,-6.05,-3.61,
36750,1661550345711,-1.1111,-0.0596,0.2077,18.86,-4.35,-2.07,
36751,1661550345711,-1.0266,-0.2002,-0.0111,16.36,-3.0,-0.79,
36752,1661550345712,-1.0301,-0.1338,0.0436,19.64,-6.46,-1.71,
36753,1661550345712,-1.0569,-0.3145,0.1476,22.34,-0.29,0.76,
36754,1661550345712,-1.0662,-0.2451,0.0831,19.44,-3.59,-0.79,
36755,1661550345713,-1.242,-0.0264,-0.0086,15.44,-12.38,-2.7,
36756,1661550345713,-1.0716,-0.3687,-0.0609,14.94,-19.99,1.48,
36757,1661550345714,-1.3802,-0.083,0.2301,15.65,-6.89,-0.06,
36758,1661550345714,-1.1697,-0.3315,-0.0521,13.35,-13.91,3.77,
36759,1661550345715,-1.3089,-0.082,0.2028,7.14,-15.43,-2.53,
36760,1661550345715,-1.2391,0.0742,0.7619,6.65,-10.78,-0.98,
36761,1661550345716,-1.3206,-0.0952,0.0714,15.76,-15.34,-3.52,
36762,1661550345716,-1.3177,0.0508,0.3561,15.04,-2.74,-1.89,
36763,1661550345716,-1.3318,0.041,0.7052,9.44,5.72,-3.98,
36764,1661550345717,-1.2776,0.1811,0.5773,10.36,7.58,-2.53,
36765,1661550345717,-1.1614,0.1977,-0.1454,12.54,-2.57,-1.52,
36766,1661550345718,-1.2366,0.1392,0.1593,12.14,-0.8,-1.8,
36767,1661550345718,-1.2649,0.3638,0.4318,12.25,2.92,-2.17,
36768,1661550345719,-1.0652,0.2832,0.0968,12.85,-5.12,-4.16,
36769,1661550345719,-1.0774,0.1265,-0.242,9.84,-5.19,-4.07,
36770,1661550345720,-1.0603,0.3198,0.4328,10.85,5.38,-3.98,
36771,1661550345720,-1.0594,0.2026,0.1608,11.95,3.26,0.58,
36772,1661550345721,-0.9744,0.1807,-0.2357,13.37,-2.23,-1.34,
36773,1661550345721,-1.0779,0.2065,0.1183,12.24,7.24,0.95,
36774,1661550345721,-1.0296,0.1904,0.5231,12.14,7.41,0.31,
36775,1661550345722,-1.0359,0.1621,-0.2792,14.23,2.09,0.03,
36776,1661550345722,-0.9339,0.2041,0.0602,14.86,5.79,2.12,
36777,1661550345723,-1.076,0.2808,0.4821,14.65,12.31,-0.79,
36778,1661550345723,-0.93,0.2075,0.0993,18.45,11.21,4.04,
36779,1661550345724,-0.8308,0.1216,-0.5614,19.74,3.76,6.96,
36780,1661550345724,-0.8675,0.2451,0.4215,20.45,14.93,4.78,
36781,1661550345725,-0.8831,0.2046,0.0133,16.45,-2.06,7.78,
36782,1661550345725,-0.9309,0.189,-0.4608,17.35,-7.82,0.12,
36783,1661550345726,-0.8152,0.2534,-0.1161,20.25,-4.19,4.78,
36784,1661550345726,-0.9212,0.4673,0.4801,20.74,6.56,1.66,
36785,1661550345727,-0.7361,0.3579,-0.2206,23.15,9.52,3.31,
36786,1661550345727,-0.6145,0.2739,-0.5306,24.26,5.12,-1.8,
36787,1661550345727,-0.7703,0.5942,0.0719,22.35,3.76,-4.35,
36788,1661550345728,-0.6521,0.3892,0.1701,25.14,0.47,1.3,
36789,1661550345728,-0.6184,0.4932,-0.3148,27.74,-0.97,-2.07,
36790,1661550345729,-0.5911,0.4746,-0.4613,29.63,0.97,2.03,
36791,1661550345729,-0.5603,0.2778,-0.3207,28.93,6.72,-3.34,
36792,1661550345730,-0.7312,0.311,-0.0404,28.35,5.79,-3.8,
36793,1661550345730,-0.8299,0.2808,-0.1297,21.76,-9.59,-3.25,
36794,1661550345731,-0.7986,0.2573,-0.409,27.14,-12.9,-7.72,
36795,1661550345731,-0.7713,0.0259,-0.1083,27.74,-2.83,-3.16,
36796,1661550345731,-0.8499,0.0859,0.2306,28.33,10.87,-7.9,
36797,1661550345732,-0.8455,0.0771,-0.3856,23.34,-5.45,-4.35,
36798,1661550345732,-0.8548,-0.0239,-0.4706,23.34,-10.52,-5.35,
36799,1661550345733,-0.7986,-0.0542,0.1823,26.05,-1.13,-1.07,
36800,1661550345733,-0.9524,0.1045,0.2028,31.05,2.16,-4.26,
36801,1661550345734,-0.888,-0.3589,-0.62,26.34,-18.3,-3.98,
36802,1661550345734,-1.2029,-0.1958,0.1134,24.34,-13.48,-8.91,
36803,1661550345735,-0.9705,-0.085,0.6525,22.93,-9.18,-6.8,
36804,1661550345735,-1.0213,-0.1348,-0.5516,22.03,-21.43,-4.71,
36805,1661550345736,-1.074,-0.2393,0.1452,21.56,-6.46,-1.34,
36806,1661550345736,-1.283,-0.1314,0.8053,15.85,0.64,3.5,
36807,1661550345737,-1.0017,0.019,0.3317,16.26,0.73,-8.09,
36808,1661550345737,-1.0149,-0.1685,-0.4803,21.54,-8.32,-2.53,
36809,1661550345737,-1.1053,-0.1074,0.2902,14.94,0.73,-3.98,
36810,1661550345738,-1.0935,0.0796,0.3039,14.14,-5.12,-5.26,
36811,1661550345738,-1.138,-0.1582,-0.5755,11.75,-18.3,-5.54,
36812,1661550345739,-1.3216,0.1992,0.109,16.46,-8.15,-3.07,
36813,1661550345739,-1.2185,0.0723,0.4987,12.74,-6.29,-3.8,
36814,1661550345740,-1.1888,-0.0142,0.1662,13.55,-8.41,-7.9,
36815,1661550345740,-1.2513,0.1655,-0.0389,11.08,-8.4,-1.98,
36816,1661550345741,-1.3694,-0.0718,0.5226,11.35,-3.84,-3.52,
36817,1661550345741,-1.2898,0.0019,0.3781,12.34,-4.52,0.22,
36818,1661550345742,-1.2073,-0.0234,0.0954,12.14,0.13,-5.17,
36819,1661550345742,-1.2952,-0.0176,0.2521,12.54,4.36,-5.35,
36820,1661550345743,-1.3206,0.0288,0.2682,13.75,5.72,-4.99,
36821,1661550345743,-1.1521,-0.0322,0.0436,11.76,-0.04,-2.07,
36822,1661550345743,-1.3133,0.1567,0.0089,12.24,-2.4,0.12,
36823,1661550345744,-0.9695,-0.1406,-0.0389,14.54,-9.42,0.03,
36824,1661550345744,-1.2239,0.0142,0.2692,13.44,-13.4,3.86,
36825,1661550345745,-1.1429,0.1445,0.3996,12.14,-6.55,-0.06,
36826,1661550345745,-1.0804,0.0395,-0.0702,10.15,-12.47,2.03,
36827,1661550345746,-1.097,0.0508,0.2414,14.94,8.08,5.95,
36828,1661550345746,-1.1253,0.2085,0.6203,11.14,7.91,-0.98,
36829,1661550345747,-0.972,0.2519,-0.0086,10.74,6.89,7.14,
36830,1661550345747,-0.9324,0.3003,-0.0585,10.34,3.93,2.58,
36831,1661550345747,-1.0467,0.3218,0.3175,12.74,10.04,7.69,
36832,1661550345748,-0.9041,0.6152,0.0573,17.04,6.89,3.31,
36833,1661550345748,-0.8611,0.4419,-0.5033,18.03,1.99,1.94,
36834,1661550345749,-0.8684,0.3745,-0.286,15.36,4.86,6.14,
36835,1661550345749,-0.928,0.543,0.2868,15.85,0.04,1.66,
36836,1661550345750,-0.9016,0.5239,-0.1024,16.94,-3.33,-1.8,
36837,1661550345750,-0.7937,0.3662,-0.3866,22.54,-3.0,2.49,
36838,1661550345751,-0.886,0.3862,0.3781,23.56,9.44,0.86,
36839,1661550345751,-0.8543,0.4434,0.4899,24.84,12.31,6.59,
36840,1661550345751,-0.7849,0.353,-0.2962,28.04,3.43,2.85,
36841,1661550345751,-0.6526,0.2295,-0.0921,23.74,8.51,2.31,
36842,1661550345751,-0.8294,0.3086,0.4249,23.36,9.01,6.96,
36843,1661550345753,-0.8382,0.2759,0.0519,27.95,4.79,4.5,
36844,1661550345753,-0.5711,0.0786,-0.8295,28.53,-5.96,5.68,
36845,1661550345753,-0.8465,0.1553,-0.0189,27.94,10.04,5.14,
36846,1661550345753,-0.4734,0.0132,0.0421,25.63,-3.16,2.21,
36847,1661550345754,-0.8763,0.1162,-0.5033,27.83,-13.91,3.13,
36848,1661550345754,-0.658,0.0977,0.0524,24.93,-7.91,0.76,
36849,1661550345754,-0.9456,0.082,0.0436,24.64,-12.55,5.49,
36850,1661550345755,-0.8938,0.0605,0.0187,25.34,4.95,0.58,
36851,1661550345755,-0.7459,0.2622,-0.0809,23.74,-2.66,-6.71,
36852,1661550345756,-0.7591,0.2949,-0.0594,25.16,2.5,-4.16,
36853,1661550345756,-0.8367,0.2446,0.028,26.84,3.52,-5.63,
36854,1661550345757,-1.0398,0.1421,-0.1532,27.24,0.47,-3.98,
36855,1661550345757,-0.9158,0.1836,-0.2074,28.14,-1.56,-5.17,
36856,1661550345759,-0.9641,0.1475,-0.0404,28.04,-5.03,-4.99,
36857,1661550345759,-0.8738,0.1997,-0.1991,24.73,-13.07,-7.72,
36858,1661550345760,-0.9285,-0.0342,-0.3031,28.84,-16.03,-7.54,
36859,1661550345760,-1.095,0.0967,0.2663,25.83,-2.23,-8.36,
36860,1661550345761,-1.1399,-0.1626,0.0954,24.53,-3.93,-5.45,
36861,1661550345761,-1.1224,-0.2437,0.0553,17.62,-3.09,-4.16,
36862,1661550345762,-1.0545,-0.1797,-0.0272,16.65,-11.88,-1.8,
36863,1661550345762,-1.1292,-0.2983,0.0709,19.96,-6.89,-0.15,
36864,1661550345763,-1.0979,-0.1929,0.0968,20.25,-0.2,1.04,
36865,1661550345763,-1.2268,-0.1055,-0.0043,16.86,-2.4,-0.24,
36866,1661550345764,-1.1136,-0.356,-0.0057,12.85,-18.9,-0.88,
36867,1661550345764,-1.3601,-0.0918,0.3175,16.14,-11.37,-0.79,
36868,1661550345765,-1.139,-0.3565,-0.0575,15.94,-14.58,2.67,
36869,1661550345765,-1.2493,0.0303,0.2096,10.05,-12.98,4.32,
36870,1661550345765,-1.2952,0.1128,0.6637,8.04,-9.51,3.22,
36871,1661550345766,-1.324,-0.1011,0.2985,10.45,-20.16,2.4,
36872,1661550345766,-1.3426,0.0366,-0.0077,19.26,-11.11,2.03,
36873,1661550345766,-1.3514,-0.0537,0.7018,17.04,4.62,4.78,
36874,1661550345766,-1.2088,0.2856,0.5109,10.85,9.52,-3.52,
36875,1661550345768,-1.1844,0.2642,0.0387,8.35,3.86,-0.79,
