srNo,timestamp,ax,ay,az,gx,gy,gz,temp
0,1661559999196,-1.1793,-0.6208,0.292,-22.89,-2.45,-2.64,
1,1661559999197,-0.9864,-0.3698,-0.189,-23.18,-8.37,-2.81,
2,1661559999197,-1.2521,-0.2849,0.4087,-20.37,7.87,-0.63,
3,1661559999197,-1.0997,-0.6452,0.1435,-25.47,1.28,1.56,
4,1661559999197,-1.067,-0.1867,-0.1509,-33.37,-5.33,-1.91,
5,1661559999197,-1.0958,-0.4758,0.5854,-27.97,5.92,2.11,
6,1661559999197,-1.0001,-0.3933,0.459,-26.28,-5.76,-0.26,
7,1661559999197,-0.9923,-0.009,-0.2725,-23.97,-6.09,0.47,
8,1661559999197,-0.9435,-0.3889,0.3183,-21.87,13.45,6.21,
9,1661559999197,-1.0909,0.1223,0.5869,-24.08,15.82,4.49,
10,1661559999197,-0.9015,0.0213,-0.232,-21.47,3.22,7.13,
11,1661559999197,-0.8824,-0.0066,0.0083,-23.97,6.68,1.92,
12,1661559999197,-0.9005,0.4964,0.1592,-24.37,2.38,0.47,
13,1661559999197,-0.8077,0.135,-0.0264,-22.28,1.28,5.02,
14,1661559999198,-0.9278,0.1756,-0.0694,-21.77,0.52,0.11,
15,1661559999198,-0.9352,0.572,0.147,-19.18,-1.77,0.02,
16,1661559999198,-0.9376,0.1585,0.2475,-17.18,-1.27,3.94,
17,1661559999198,-0.9205,0.5589,0.4341,-18.48,8.37,3.02,
18,1661559999198,-0.8839,0.4182,0.2436,-14.77,3.55,5.66,
19,1661559999198,-0.9337,0.0657,0.039,-14.89,8.04,0.2,
20,1661559999198,-0.9654,0.5691,0.5791,-14.07,20.72,2.29,
21,1661559999198,-0.9562,0.0525,0.2319,-11.98,14.89,1.83,
22,1661559999198,-0.7438,0.3172,-0.357,-14.37,4.65,3.66,
23,1661559999198,-0.8785,0.4871,-0.0767,-10.88,1.09,0.56,
24,1661559999198,-1.0157,0.0823,0.4131,-3.98,1.61,6.85,
25,1661559999198,-0.7755,0.1521,-0.4566,-3.28,-7.02,-1.17,
26,1661559999198,-0.8697,0.1687,-0.2832,-4.97,-3.38,8.13,
27,1661559999198,-0.941,0.1741,0.5932,-3.68,1.69,1.92,
28,1661559999198,-1.0387,0.2898,0.3462,0.02,-15.05,4.3,
29,1661559999198,-0.7545,-0.0095,-0.3643,-0.69,-12.42,9.77,
30,1661559999198,-0.9977,0.2293,0.5073,-0.18,-3.21,5.02,
31,1661559999198,-0.9571,0.3958,0.3081,1.01,0.16,5.94,
32,1661559999198,-0.8048,-0.0764,-0.2495,0.72,-8.88,4.85,
33,1661559999199,-0.9894,0.2791,0.2353,-1.08,14.05,2.01,
34,1661559999199,-0.9684,0.5994,0.4433,1.92,1.09,3.85,
35,1661559999199,-0.9171,-0.0198,-0.6309,3.42,-12.35,8.41,
36,1661559999199,-1.0494,0.6892,0.666,0.92,4.24,-2.55,
37,1661559999199,-1.1549,0.6253,0.8076,0.21,-4.9,2.56,
38,1661559999199,-0.9986,0.1927,-0.3882,1.02,-9.46,-0.17,
39,1661559999199,-0.943,0.5027,-0.0166,3.92,4.91,-1.54,
40,1661559999199,-1.0343,0.0452,0.5649,5.31,8.37,-4.64,
41,1661559999199,-1.0484,0.3596,-0.0962,2.41,-0.17,-8.47,
42,1661559999199,-0.9928,0.2737,-0.1885,1.62,3.31,-5.46,
43,1661559999199,-1.0973,-0.3967,0.147,0.12,2.45,-5.55,
44,1661559999199,-1.1075,0.1668,0.2583,-2.07,6.27,-9.02,
45,1661559999200,-1.1446,-0.2268,0.0722,0.52,8.88,-7.37,
46,1661559999200,-1.0431,-0.5652,-0.1782,-0.78,-1.68,-0.53,
47,1661559999200,-1.0709,-0.2429,-0.2871,-7.08,-10.82,-3.63,
48,1661559999200,-1.2394,-0.2619,0.6181,-9.08,7.2,-7.37,
49,1661559999200,-1.1676,-0.4553,0.1992,-10.16,-7.27,-6.82,
50,1661559999200,-1.0572,-0.4182,-0.52,-12.79,-15.64,-6.1,
51,1661559999200,-1.1568,-0.3445,0.7842,-13.18,2.62,-5.19,
52,1661559999200,-1.2223,-0.0993,0.4712,-9.78,6.18,-5.0,
53,1661559999200,-0.86,-0.5573,-0.7129,-8.68,-3.04,-1.91,
54,1661559999200,-1.2604,-0.0603,0.6928,-21.87,12.26,-6.82,
55,1661559999200,-1.1114,-0.0534,0.2876,-18.87,0.59,-8.47,
56,1661559999200,-1.024,-0.489,-0.4854,-15.38,-7.1,-4.18,
57,1661559999200,-1.0851,-0.1208,-0.1367,-20.17,9.23,-0.99,
58,1661559999200,-1.2628,0.0637,0.4282,-23.57,-4.57,2.11,
59,1661559999201,-1.129,-0.2737,-0.0005,-22.29,-5.24,-0.9,
60,1661559999201,-1.171,0.0095,0.3496,-18.87,-0.08,-1.91,
61,1661559999201,-1.0734,-0.2702,0.1284,-18.48,-1.77,-4.91,
62,1661559999201,-1.17,-0.0329,0.4096,-26.17,8.37,-3.36,
63,1661559999201,-1.1144,-0.3156,0.5268,-25.66,15.22,-2.64,
64,1661559999201,-0.9781,-0.1814,-0.1953,-26.76,9.64,0.38,
65,1661559999201,-1.0109,0.0052,0.1255,-24.67,9.73,0.38,
66,1661559999201,-1.0392,-0.2619,0.3603,-24.37,9.23,3.11,
67,1661559999201,-0.8609,-0.28,-0.1963,-22.57,-7.95,0.38,
68,1661559999201,-0.9986,0.034,-0.2495,-22.77,-1.94,3.3,
69,1661559999201,-0.9205,-0.3523,0.2905,-20.57,-2.45,4.94,
70,1661559999201,-0.9513,-0.0412,-0.0484,-23.86,-14.12,4.94,
71,1661559999201,-0.7628,0.0354,0.3398,-25.18,0.68,4.3,
72,1661559999201,-0.9938,-0.0486,0.2846,-20.87,3.72,9.13,
73,1661559999201,-0.9444,-0.0031,0.1255,-17.97,5.92,7.95,
74,1661559999202,-0.9068,-0.073,0.4194,-18.87,4.48,8.5,
75,1661559999202,-1.1598,0.2385,0.7851,-23.07,10.83,7.86,
76,1661559999202,-0.899,0.2923,-0.0342,-17.78,3.55,7.95,
77,1661559999202,-0.9151,0.0808,-0.023,-17.18,8.37,6.21,
78,1661559999202,-0.92,0.4544,0.354,-16.97,13.7,5.48,
79,1661559999202,-0.8761,0.4934,0.042,-15.27,0.59,7.22,
80,1661559999203,-0.86,0.2576,-0.2984,-11.47,-2.03,8.5,
81,1661559999203,-0.9078,0.8206,0.291,-9.98,8.04,2.01,
82,1661559999203,-0.7584,0.4397,-0.1411,-9.48,4.31,4.76,
83,1661559999203,-0.7823,0.4549,-0.3394,-4.68,6.6,-0.26,
84,1661559999203,-0.6505,0.5999,-0.1665,-1.98,1.28,0.29,
85,1661559999203,-0.8443,0.3108,-0.1011,1.42,-3.21,-0.81,
86,1661559999203,-0.8004,0.615,0.0395,5.22,-0.0,-1.54,
87,1661559999203,-0.9381,-0.0178,-0.107,5.62,-6.93,5.75,
88,1661559999203,-0.8961,-0.0339,-0.0733,2.63,-3.21,4.49,
89,1661559999203,-0.9474,0.4656,0.2895,-0.98,-9.46,4.76,
90,1661559999203,-1.0675,-0.1662,0.2114,0.32,-15.05,4.76,
91,1661559999203,-0.8946,-0.0056,0.0991,0.21,-21.49,0.2,
92,1661559999203,-1.045,0.1521,0.7768,2.12,-2.7,2.66,
93,1661559999203,-1.1329,-0.0202,0.8281,3.62,-0.08,4.3,
94,1661559999203,-1.2355,-0.0046,-0.002,-0.18,-2.03,9.49,
95,1661559999203,-1.0079,0.0769,0.2539,-4.09,-0.51,6.76,
96,1661559999203,-1.1344,0.218,0.5102,-6.07,-1.77,5.39,
97,1661559999204,-0.9166,0.323,-0.2051,-1.78,4.31,3.57,
98,1661559999204,-0.9288,0.0144,-0.5874,5.91,-5.07,4.03,
99,1661559999204,-1.1144,0.1258,0.0527,3.31,10.33,2.11,
100,1661559999204,-1.0851,0.4607,0.2886,2.72,5.25,-4.0,
101,1661559999204,-0.9899,-0.2126,-0.5322,-0.38,-0.93,-3.36,
102,1661559999204,-1.1105,0.2224,0.1592,-6.76,-5.92,-8.56,
103,1661559999204,-1.2189,0.1975,0.3642,-6.38,-9.05,-4.09,
104,1661559999204,-1.1114,-0.1335,0.247,-0.78,-0.08,-1.36,
105,1661559999204,-1.1422,0.156,0.2739,-0.69,15.73,-7.37,
106,1661559999204,-1.0968,-0.3308,0.0381,-5.68,9.73,4.3,
107,1661559999204,-1.1446,-0.0593,0.4297,-11.98,12.69,-5.74,
108,1661559999204,-1.1329,-0.1599,0.271,-6.58,7.61,-2.9,
109,1661559999204,-1.0782,-0.5017,-0.2891,-4.78,-2.03,-7.46,
110,1661559999204,-1.0372,-0.2224,-0.2344,-11.67,3.55,-7.55,
111,1661559999204,-1.2091,-0.2844,0.5923,-11.78,0.85,-9.84,
112,1661559999205,-0.9698,-0.7014,-0.4141,-12.37,-14.64,-7.37,
113,1661559999205,-1.173,-0.406,-0.1236,-16.07,-7.95,-4.64,
114,1661559999205,-1.2203,-0.5857,1.0317,-23.47,-5.92,-2.81,
115,1661559999205,-1.3111,-0.3762,0.1142,-26.47,-12.94,-5.1,
116,1661559999205,-1.1261,-0.4382,-0.0855,-20.89,6.27,5.57,
117,1661559999205,-1.3141,-0.3967,0.8247,-24.67,13.87,2.75,
118,1661559999205,-1.1095,-0.1037,0.497,-29.07,10.57,0.75,
119,1661559999205,-0.9606,-0.4743,-0.2808,-26.08,-3.71,4.85,
120,1661559999205,-1.1661,-0.2239,-0.1123,-24.87,10.49,-1.36,
121,1661559999205,-1.0709,0.2566,0.3135,-24.17,17.01,-0.44,
122,1661559999205,-0.9669,-0.3293,-0.2202,-27.97,9.4,0.38,
123,1661559999205,-0.9547,0.1829,-0.2168,-28.17,-2.03,-2.18,
124,1661559999205,-0.9147,0.0525,0.1762,-20.87,-4.99,1.37,
125,1661559999205,-1.0543,0.0789,0.0981,-20.37,1.02,0.02,
126,1661559999205,-0.8653,0.1614,0.022,-23.57,9.9,-2.73,
127,1661559999205,-0.7599,-0.0212,0.0678,-26.17,11.59,-2.36,
128,1661559999205,-0.8502,0.2254,0.2295,-24.47,9.81,-4.27,
129,1661559999206,-0.8824,0.0891,0.1465,-20.57,1.35,0.29,
130,1661559999206,-0.8736,-0.1618,0.0112,-20.28,-0.25,0.47,
131,1661559999206,-0.8815,0.2644,0.2007,-19.47,2.71,-0.72,
132,1661559999206,-1.0172,-0.0686,0.2495,-19.07,8.37,0.47,
133,1661559999206,-0.7941,-0.0959,0.1577,-20.08,4.24,2.47,
134,1661559999206,-0.961,0.1663,0.2007,-20.35,-4.4,3.11,
135,1661559999206,-0.9562,-0.1623,0.4565,-15.67,-7.27,10.13,
136,1661559999206,-1.0787,0.0906,0.1924,-16.57,-4.9,5.39,
137,1661559999206,-0.8844,0.1052,0.3296,-16.37,10.91,11.23,
138,1661559999206,-1.0651,0.1204,0.2983,-17.67,13.79,11.05,
139,1661559999206,-0.8385,0.3152,-0.1236,-15.78,10.57,6.49,
140,1661559999206,-0.7159,0.1795,-0.0625,-10.57,7.87,6.12,
141,1661559999206,-0.9571,0.4021,0.3081,-4.68,11.59,2.2,
142,1661559999206,-0.7858,0.5301,-0.4903,-3.39,-4.83,7.4,
143,1661559999206,-0.7916,0.1863,-0.4322,-4.58,-7.1,10.13,
144,1661559999206,-0.9488,0.8992,0.6084,-3.08,7.95,4.3,
145,1661559999206,-0.8317,0.7102,0.1191,-1.6,-10.82,4.94,
146,1661559999207,-0.7193,0.2688,-0.7437,-0.49,-5.92,3.39,
147,1661559999207,-0.9025,0.7722,0.5307,-1.17,6.44,-2.0,
148,1661559999207,-0.9068,0.3689,0.3125,3.11,-10.56,-0.17,
149,1661559999207,-0.9171,0.5496,-0.1538,4.91,-10.82,-2.27,
150,1661559999207,-0.9918,0.2093,0.4448,6.39,2.62,-0.9,
151,1661559999207,-1.0582,0.0398,0.4228,3.22,1.02,-3.91,
152,1661559999207,-0.9733,0.4929,0.1694,0.41,2.29,-10.02,
153,1661559999207,-1.1085,0.0037,0.2456,0.52,-0.42,-1.82,
154,1661559999207,-0.9693,-0.0461,0.001,-1.88,-5.66,-1.54,
155,1661559999207,-1.0465,0.239,-0.021,2.82,-9.13,-0.81,
156,1661559999207,-0.9762,-0.1218,0.2876,2.12,4.99,1.37,
157,1661559999207,-1.0118,-0.1911,0.2055,0.32,0.68,-5.65,
158,1661559999207,-1.1017,-0.091,-0.1758,-6.18,-4.83,3.2,
159,1661559999207,-1.0289,-0.343,0.4595,-10.18,-2.7,-3.72,
160,1661559999207,-1.1495,0.0999,0.4609,-6.88,1.35,-2.64,
161,1661559999207,-1.0773,-0.1042,-0.2041,-1.69,-8.2,3.48,
162,1661559999207,-1.1183,-0.4538,-0.2066,-7.78,9.3,1.56,
163,1661559999208,-1.1832,0.2761,0.8921,-10.18,19.71,-2.18,
164,1661559999208,-0.9068,-0.4826,-0.4717,-10.28,-4.64,-3.17,
165,1661559999208,-1.0675,0.0447,-0.2407,-10.88,4.24,-6.1,
166,1661559999208,-1.1915,-0.0613,0.4619,-9.57,4.31,-8.83,
167,1661559999208,-1.1827,-0.3044,-0.2241,-15.27,-4.57,-4.46,
168,1661559999208,-1.1617,0.2219,0.0185,-11.98,-2.54,-12.85,
169,1661559999208,-0.9972,-0.1511,0.1572,-5.08,-2.54,-8.01,
170,1661559999208,-1.1329,-0.299,0.188,-10.88,1.86,-13.67,
171,1661559999208,-1.1622,-0.1238,0.2881,-15.18,-2.03,-10.83,
172,1661559999208,-1.2618,-0.6023,0.2153,-20.28,-2.54,-4.73,
173,1661559999208,-1.1368,0.0393,0.3579,-19.97,10.23,-2.36,
174,1661559999208,-1.2154,-0.6286,0.3408,-22.48,9.98,-0.26,
175,1661559999208,-1.0109,-0.4988,-0.0283,-24.47,-1.68,-2.18,
176,1661559999208,-1.2667,-0.239,0.3716,-23.67,-1.87,-2.09,
177,1661559999209,-1.1354,-0.6511,0.2153,-23.27,-1.87,4.21,
178,1661559999209,-1.0963,-0.2126,-0.1802,-29.77,-7.6,4.85,
179,1661559999209,-1.0167,-0.218,0.1909,-29.17,11.26,7.31,
180,1661559999209,-0.9557,-0.3899,0.4199,-30.07,-2.2,8.87,
181,1661559999209,-0.9884,0.0393,-0.2241,-27.37,-8.53,5.39,
182,1661559999209,-0.9117,-0.4011,0.1162,-21.47,3.05,10.22,
183,1661559999209,-1.1256,0.0667,0.6567,-22.37,14.98,2.2,
184,1661559999210,-0.9469,0.0857,-0.1011,-23.18,8.04,9.4,
185,1661559999210,-0.8668,-0.0608,-0.1245,-24.98,8.54,7.4,
186,1661559999211,-0.7081,0.3206,0.1084,-27.16,7.44,4.94,
187,1661559999211,-0.7999,0.1931,0.1225,-22.28,5.92,5.94,
188,1661559999212,-0.92,0.1135,-0.0337,-18.17,-0.75,2.75,
189,1661559999212,-0.9737,0.5374,0.0986,-17.87,-3.21,-0.9,
190,1661559999213,-0.9689,0.1775,0.3843,-19.07,1.61,1.74,
191,1661559999213,-0.9308,0.5271,0.3847,-20.28,8.21,-0.72,
192,1661559999213,-0.8102,0.4383,0.1333,-16.88,7.11,1.37,
193,1661559999214,-0.8556,0.1009,-0.0503,-18.57,5.92,2.47,
194,1661559999214,-0.9254,0.5344,0.5166,-15.08,17.42,4.49,
195,1661559999215,-1.0284,0.052,0.3081,-10.97,15.32,3.2,
196,1661559999215,-0.8058,0.2156,-0.2871,-14.48,6.01,2.47,
197,1661559999216,-0.8912,0.4534,-0.0864,-14.37,-0.34,1.92,
198,1661559999216,-0.9972,0.1067,0.3828,-10.38,2.12,-1.54,
199,1661559999217,-0.8107,0.0554,-0.315,-5.89,-2.2,2.84,
200,1661559999217,-0.8263,0.1585,-0.3311,-3.17,1.86,4.03,
201,1661559999217,-0.9005,0.1795,0.605,-3.39,9.73,4.58,
202,1661559999218,-1.0582,0.3157,0.457,-2.27,-3.3,6.3,
203,1661559999218,-0.7897,0.0281,-0.4278,-5.66,-7.43,9.67,
204,1661559999219,-0.9645,0.1468,0.3218,-5.28,-6.5,7.77,
205,1661559999219,-0.9869,0.4558,0.3774,-3.08,-1.61,2.66,
206,1661559999220,-0.8053,-0.0075,-0.3013,-0.58,-10.49,9.95,
207,1661559999220,-0.9459,0.2678,0.0522,-1.17,10.66,2.75,
208,1661559999221,-0.9405,0.6394,0.4624,1.3,0.16,2.84,
209,1661559999221,-0.9327,-0.0158,-0.5117,-0.49,-12.52,6.39,
210,1661559999221,-1.0382,0.6717,0.5127,-6.48,3.64,-0.35,
211,1661559999222,-0.9977,0.3162,0.3242,-2.27,-4.31,5.02,
212,1661559999223,-0.9684,0.2034,-0.2168,1.22,-5.76,-4.55,
213,1661559999223,-0.8868,0.5178,-0.0103,4.62,6.01,-3.36,
214,1661559999223,-1.0221,0.0847,0.583,4.21,10.33,-5.65,
215,1661559999225,-1.0602,0.3616,-0.0469,0.52,1.86,-8.47,
216,1661559999225,-1.1139,-0.136,-0.1587,-0.78,0.35,-7.28,
217,1661559999225,-1.1066,-0.3811,0.143,-1.98,6.01,-11.93,
218,1661559999225,-1.1359,0.1829,0.3335,-5.1,5.67,-8.29,
219,1661559999226,-1.1832,-0.1931,0.0356,-3.98,2.38,-9.2,
220,1661559999226,-0.9103,-0.5193,-0.336,-3.28,-7.19,-7.46,
221,1661559999227,-1.1925,-0.1169,0.2558,-3.98,-4.47,-9.84,
222,1661559999227,-1.1622,-0.4089,0.6216,-8.88,3.98,-6.73,
223,1661559999227,-1.1124,-0.3503,-0.4053,-11.58,-14.71,-7.64,
224,1661559999229,-1.0802,-0.447,0.0815,-15.98,-8.46,-2.36,
225,1661559999229,-1.1661,-0.3015,0.771,-17.97,14.39,0.47,
226,1661559999229,-1.1822,-0.0788,0.3984,-9.48,1.78,0.47,
227,1661559999229,-0.819,-0.6111,-0.8384,-9.87,-12.52,2.84,
228,1661559999230,-1.2247,-0.049,0.728,-17.18,9.23,0.56,
229,1661559999230,-1.1598,-0.1145,0.3154,-19.67,-2.45,1.37,
230,1661559999231,-0.9933,-0.5432,-0.6753,-22.77,-2.11,1.1,
231,1661559999231,-1.171,0.1482,0.4795,-25.07,8.46,-3.08,
232,1661559999232,-1.2438,-0.0417,0.5542,-21.67,-1.61,-2.27,
233,1661559999232,-1.1075,-0.3132,-0.0083,-21.18,-5.16,-3.63,
234,1661559999233,-1.15,-0.049,0.3364,-24.08,2.88,-1.72,
235,1661559999233,-1.129,-0.2893,0.2221,-22.37,1.09,-2.27,
236,1661559999234,-1.1778,-0.0305,0.374,-25.86,14.8,-1.72,
237,1661559999234,-1.0958,-0.4084,0.4057,-29.57,11.93,0.56,
238,1661559999235,-0.9825,-0.1394,-0.2349,-28.47,2.71,-5.0,
239,1661559999235,-1.0611,-0.0544,0.1553,-24.28,5.41,-2.81,
240,1661559999235,-0.9938,-0.4431,0.2002,-22.08,9.4,-1.72,
241,1661559999236,-0.8668,-0.2121,-0.1543,-21.67,-5.92,-2.18,
242,1661559999236,-1.0382,0.0183,-0.2007,-26.98,-3.54,2.93,
243,1661559999237,-0.902,-0.3703,0.3227,-28.08,-8.46,7.68,
244,1661559999237,-0.9444,-0.0105,0.0459,-27.76,-8.03,10.13,
245,1661559999238,-0.7477,-0.0139,0.2431,-20.68,8.3,4.58,
246,1661559999238,-1.027,-0.0403,0.2773,-17.06,4.65,7.68,
247,1661559999239,-0.9298,-0.0461,0.2055,-18.37,-0.08,5.48,
248,1661559999239,-1.0582,0.031,0.6006,-23.57,4.24,6.67,
249,1661559999240,-1.0929,0.2918,0.6723,-22.37,15.32,3.85,
250,1661559999240,-0.8912,0.2044,0.0229,-20.48,10.83,12.42,
251,1661559999241,-0.9278,0.0843,0.021,-20.08,13.2,3.48,
252,1661559999241,-1.004,0.6428,0.3232,-18.28,4.15,5.48,
253,1661559999241,-0.8927,0.1795,-0.0708,-15.87,0.59,7.22,
254,1661559999242,-0.9464,0.2991,-0.0821,-15.87,3.55,3.02,
255,1661559999243,-0.9366,0.7932,0.2368,-15.87,8.54,7.03,
256,1661559999243,-0.7721,0.4549,-0.0122,-12.77,11.76,8.22,
257,1661559999243,-0.691,0.6472,-0.1748,-5.89,20.21,4.67,
258,1661559999244,-0.7262,0.3826,-0.2075,0.72,10.57,7.77,
259,1661559999244,-0.8624,0.6145,-0.0083,0.61,7.44,1.92,
260,1661559999245,-0.8224,0.6502,0.0547,0.21,1.09,2.47,
261,1661559999245,-0.9239,-0.0505,-0.25,-1.08,-9.98,4.58,
262,1661559999246,-0.8292,0.3606,-0.0025,-3.59,-14.64,0.47,
263,1661559999246,-1.0616,0.2132,0.2085,0.41,-14.12,3.02,
264,1661559999247,-1.0568,-0.1433,0.125,2.61,-7.27,3.66,
265,1661559999247,-0.9366,0.095,0.1567,2.32,-8.37,-2.0,
266,1661559999247,-1.0484,0.1023,0.8628,0.82,6.44,4.49,
267,1661559999248,-1.0436,-0.0041,0.3242,-3.17,-4.06,5.39,
268,1661559999248,-0.9942,0.093,-0.0152,-7.98,-1.87,1.65,
269,1661559999249,-0.9249,0.0457,0.3447,-8.07,-0.84,0.11,
270,1661559999249,-1.1295,0.2947,0.5171,-3.59,4.65,0.75,
271,1661559999250,-0.8697,0.2395,-0.3692,3.72,8.37,8.04,
272,1661559999250,-0.9659,-0.1584,-0.3999,5.51,-0.34,1.28,
273,1661559999250,-1.1422,0.24,0.1357,-1.98,12.52,0.11,
274,1661559999251,-1.0997,0.3474,0.1665,-4.58,-12.01,-0.72,
275,1661559999251,-1.0104,-0.1985,-0.5308,-5.4,-14.21,-3.72,
276,1661559999252,-1.1207,0.3186,0.3286,-4.49,-3.97,-1.45,
277,1661559999252,-1.128,-0.0876,0.3554,-5.58,2.21,-2.73,
278,1661559999253,-1.2296,0.0808,0.2627,-2.78,11.67,-3.36,
279,1661559999253,-1.1388,0.1135,0.3266,-5.17,10.33,-8.83,
280,1661559999254,-1.17,-0.3166,0.1225,-6.68,2.62,-7.0,
281,1661559999254,-1.1373,0.0935,0.3916,-7.58,14.46,-11.38,
282,1661559999255,-1.0968,-0.2937,0.0063,-8.68,11.5,-4.82,
283,1661559999255,-0.9986,-0.3991,-0.523,-14.28,3.31,-7.55,
284,1661559999256,-1.2247,-0.1125,0.2788,-14.37,-2.45,-8.38,
285,1661559999256,-1.1559,-0.6726,-0.0083,-5.39,-12.35,-3.17,
286,1661559999256,-1.1217,-0.424,-0.4424,-11.78,-22.59,0.75,
287,1661559999257,-1.2858,-0.5105,0.6733,-25.18,-5.83,-5.55,
288,1661559999257,-1.1173,-0.6062,0.8887,-28.98,2.79,0.11,
289,1661559999258,-1.2355,-0.2937,0.1762,-22.28,2.38,-2.36,
290,1661559999259,-1.1193,-0.5207,0.1157,-22.57,3.81,0.2,
291,1661559999259,-1.3751,-0.3391,0.8281,-26.08,6.01,-0.9,
292,1661559999259,-1.1534,-0.1614,0.4961,-25.47,8.8,-1.91,
293,1661559999260,-1.0826,-0.4236,-0.2534,-23.77,13.12,0.84,
294,1661559999260,-0.9942,0.201,0.1509,-28.56,20.21,1.02,
295,1661559999261,-1.0851,0.1199,0.2739,-32.87,12.1,2.56,
296,1661559999261,-1.0128,-0.2986,-0.2173,-29.57,-8.03,-0.9,
297,1661559999262,-1.0231,0.1887,-0.2871,-21.87,-8.79,0.66,
298,1661559999262,-0.9508,-0.0466,0.3301,-22.77,10.23,-1.36,
299,1661559999263,-1.0157,0.1673,0.1885,-25.18,5.75,-1.27,
300,1661559999263,-0.8038,0.0501,-0.127,-29.88,4.06,2.29,
301,1661559999264,-0.8414,0.0886,0.3135,-26.08,6.44,-0.08,
302,1661559999264,-0.8453,0.3269,0.3554,-21.77,8.97,0.66,
303,1661559999264,-0.8678,-0.0544,-0.0694,-18.48,5.5,2.75,
304,1661559999265,-0.8302,-0.0403,0.0512,-21.88,7.61,-1.08,
305,1661559999265,-0.9347,0.2058,0.3437,-23.18,6.1,-0.99,
306,1661559999266,-0.9039,-0.1091,0.0469,-21.58,-5.57,3.66,
307,1661559999266,-0.9278,0.1399,0.1284,-21.18,-9.46,1.74,
308,1661559999267,-1.0192,-0.091,0.4453,-17.47,-4.9,4.85,
309,1661559999267,-0.8443,-0.156,0.372,-19.07,4.91,4.76,
310,1661559999268,-1.0441,0.1492,0.2646,-18.57,5.67,8.68,
311,1661559999268,-0.8463,0.031,0.5141,-20.48,13.36,9.67,
312,1661559999268,-1.1197,0.179,0.1841,-16.77,4.91,6.03,
313,1661559999269,-0.8292,0.2293,-0.1255,-12.37,7.87,11.32,
314,1661559999269,-0.6842,0.1507,0.0937,-11.28,17.25,9.49,
315,1661559999270,-0.8492,0.5325,0.2964,-10.97,22.08,5.94,
316,1661559999270,-0.7657,0.3596,-0.7398,-6.68,-3.89,12.96,
317,1661559999271,-0.8043,0.3577,-0.251,-4.97,5.67,10.5,
318,1661559999271,-0.9288,0.867,0.414,-2.68,2.12,6.39,
319,1661559999272,-0.7613,0.2254,-0.8262,-2.49,-13.19,6.49,
320,1661559999272,-0.733,0.3709,-0.6543,-6.48,-8.96,2.38,
321,1661559999273,-0.8868,0.6985,0.5688,-4.29,-3.71,3.3,
322,1661559999273,-0.9078,0.4094,0.227,2.52,-7.86,1.83,
323,1661559999274,-0.899,0.5725,-0.0376,5.62,-1.87,-1.17,
324,1661559999274,-1.0231,0.0852,0.5171,1.51,6.18,2.47,
325,1661559999274,-1.025,0.1472,0.5034,-0.08,1.09,-0.72,
326,1661559999275,-0.9557,0.4832,0.1841,-3.28,3.72,0.47,
327,1661559999275,-1.0939,-0.0832,0.125,-1.48,-1.94,-2.36,
328,1661559999276,-1.0382,0.1629,0.0532,-3.39,-8.79,-3.91,
329,1661559999276,-1.0587,0.22,0.1499,1.92,-3.89,-4.09,
330,1661559999277,-0.9591,-0.2717,0.1391,2.01,2.62,-1.91,
331,1661559999277,-1.0924,-0.0769,0.0088,-1.48,-0.51,-2.09,
332,1661559999278,-1.1808,-0.1555,-0.0928,-8.18,-10.32,-0.99,
333,1661559999278,-1.1476,-0.2483,0.3789,-8.88,-6.85,-3.17,
334,1661559999278,-1.0909,0.0159,0.2846,-3.78,3.98,-0.17,
335,1661559999279,-1.0348,-0.2546,-0.1724,-1.08,-3.8,-0.17,
336,1661559999279,-1.2174,-0.2087,0.1382,-6.88,16.08,-3.17,
337,1661559999280,-1.1207,0.1477,0.622,-8.36,14.13,-0.81,
338,1661559999280,-0.9703,-0.4997,-0.4629,-10.88,-1.27,0.2,
339,1661559999281,-1.089,0.2312,0.0478,-10.28,8.04,-4.18,
340,1661559999281,-1.1427,-0.3376,0.2412,-11.28,1.95,3.66,
341,1661559999282,-1.1534,-0.0764,-0.2066,-14.17,-1.51,-4.64,
342,1661559999282,-1.0953,0.0349,-0.0181,-12.37,-0.0,-1.27,
343,1661559999283,-1.026,-0.3274,0.1079,-13.18,-7.6,-0.81,
344,1661559999283,-1.1539,-0.0554,0.2231,-14.79,-4.83,-5.92,
345,1661559999284,-1.0836,-0.3664,0.0801,-15.87,1.78,-4.36,
346,1661559999284,-1.2316,-0.4265,0.3408,-22.77,10.49,-7.64,
347,1661559999284,-1.2252,-0.0227,0.5386,-25.18,2.12,-7.28,
348,1661559999285,-1.1759,-0.738,0.0298,-21.07,-5.76,-6.38,
349,1661559999286,-1.0904,-0.2229,0.0981,-23.27,0.42,-3.17,
350,1661559999286,-1.2399,-0.4114,0.5561,-28.27,15.73,0.02,
351,1661559999287,-1.0665,-0.5515,-0.1333,-26.87,3.12,4.76,
352,1661559999287,-1.1476,-0.2834,-0.2925,-27.77,0.59,-0.44,
353,1661559999287,-1.1041,-0.3269,0.5678,-26.76,4.99,4.21,
354,1661559999290,-1.1007,-0.2824,0.1601,-30.49,-4.47,0.66,
355,1661559999290,-0.9322,-0.0354,-0.3169,-26.37,2.38,2.56,
356,1661559999290,-1.0367,-0.3078,0.4223,-23.57,13.36,6.58,
357,1661559999290,-0.9859,0.2136,0.479,-25.66,10.74,3.02,
358,1661559999290,-0.86,-0.1301,-0.2407,-23.86,0.85,4.85,
359,1661559999290,-0.8658,-0.1238,-0.1851,-28.17,8.54,1.56,
360,1661559999291,-0.8019,0.45,0.229,-23.86,7.95,3.39,
361,1661559999291,-0.8253,-0.0373,0.0425,-23.47,9.06,3.3,
362,1661559999291,-0.8839,0.3177,0.0449,-23.27,3.81,2.29,
363,1661559999292,-0.858,0.448,0.1191,-21.27,-0.58,2.2,
364,1661559999292,-0.985,0.2112,0.3984,-19.47,4.99,5.57,
365,1661559999293,-0.9547,0.4422,0.415,-17.47,9.3,-1.27,
366,1661559999293,-0.7335,0.2478,0.0014,-17.17,9.4,0.75,
367,1661559999294,-0.8614,0.2649,0.1528,-18.08,11.0,-1.08,
368,1661559999294,-0.9532,0.448,0.4912,-17.67,13.2,-4.36,
369,1661559999295,-0.8673,0.0188,-0.0069,-13.67,7.53,0.02,
370,1661559999295,-0.7281,0.1624,-0.1997,-11.78,0.76,-1.17,
371,1661559999296,-0.941,0.4094,0.1103,-8.38,6.18,2.56,
372,1661559999296,-0.8776,0.053,0.2461,-6.38,9.23,7.13,
373,1661559999296,-0.8346,0.1531,-0.4317,-6.77,1.52,2.11,
374,1661559999297,-0.8732,0.0686,0.0141,-9.67,4.06,6.49,
375,1661559999297,-0.7394,0.1345,0.4184,-8.18,4.15,8.32,
376,1661559999298,-0.9391,0.2722,0.1421,-4.38,-5.41,8.32,
377,1661559999298,-0.7247,-0.0949,-0.3413,-3.17,-10.4,9.67,
378,1661559999299,-1.1017,0.3577,0.4687,-4.38,-6.17,6.03,
379,1661559999299,-0.9191,0.1858,0.0312,-2.97,1.69,10.13,
380,1661559999300,-0.6925,-0.0642,-0.2652,-1.48,0.09,5.57,
381,1661559999300,-0.8756,0.5452,0.3681,-4.97,17.35,6.94,
382,1661559999301,-0.9391,0.3523,0.1313,-0.49,2.88,7.13,
383,1661559999301,-0.9435,0.1204,-0.521,-2.27,-9.98,0.93,
384,1661559999302,-0.9781,0.5315,0.1128,-4.97,-1.27,0.38,
385,1661559999302,-1.0143,0.4163,0.6992,-2.18,-8.46,2.93,
386,1661559999302,-0.9855,0.3391,-0.3589,2.21,-4.06,3.11,
387,1661559999303,-0.9523,0.322,0.0595,4.21,2.62,0.29,
388,1661559999303,-0.9816,0.0838,0.5166,-1.17,11.43,-1.72,
389,1661559999304,-1.0499,0.3889,0.334,-3.17,-3.71,-1.91,
390,1661559999304,-1.0187,-0.0486,-0.4658,-1.68,-5.24,-0.99,
391,1661559999305,-1.0987,-0.2619,0.3227,0.02,7.44,-2.27,
392,1661559999305,-1.0836,0.2273,0.4316,-3.88,5.5,-0.08,
393,1661559999306,-1.0763,-0.4309,-0.355,-3.28,0.68,-2.09,
394,1661559999306,-0.923,-0.5071,-0.4224,-5.08,-0.68,-1.63,
395,1661559999306,-1.1891,-0.1257,0.2226,-7.87,-3.71,-3.36,
396,1661559999307,-1.2023,-0.3572,0.5034,-11.18,-4.73,1.92,
397,1661559999307,-1.191,-0.3122,-0.2627,-8.88,-9.3,0.11,
398,1661559999308,-1.1608,-0.5022,-0.0689,-16.88,-4.14,7.03,
399,1661559999308,-1.4401,-0.0866,0.8725,-19.97,9.73,-1.82,
400,1661559999309,-1.1251,-0.2756,-0.0957,-13.47,-3.71,0.29,
401,1661559999309,-0.9606,-0.552,-0.4263,-11.47,-6.93,-2.64,
402,1661559999310,-1.1568,0.2195,0.9267,-19.67,19.97,-4.18,
403,1661559999310,-1.2018,0.0442,0.6382,-17.58,7.02,-0.35,
404,1661559999311,-1.0406,-0.5447,-0.6055,-21.97,-1.18,0.93,
405,1661559999311,-1.0499,0.1453,0.0635,-24.98,0.59,-2.81,
406,1661559999312,-1.1661,-0.2209,0.4775,-23.25,-1.35,1.92,
407,1661559999312,-1.152,-0.1072,0.1504,-22.48,-0.84,-2.73,
408,1661559999312,-1.11,-0.2219,0.0898,-23.38,1.86,-0.17,
409,1661559999313,-1.2301,-0.1213,0.1982,-25.47,0.85,-2.36,
410,1661559999314,-1.1134,-0.0857,0.4751,-28.47,11.84,-5.28,
411,1661559999314,-1.0997,-0.4309,0.3325,-28.27,9.23,-1.63,
412,1661559999315,-1.0592,-0.2126,-0.0762,-29.17,10.4,-6.47,
413,1661559999315,-1.0943,0.0501,0.1543,-26.17,9.4,-0.35,
414,1661559999315,-0.9967,-0.4377,0.1225,-24.28,9.64,-2.46,
415,1661559999316,-0.901,0.0066,-0.1763,-24.67,-2.2,0.47,
416,1661559999316,-1.0099,-0.2121,0.0137,-27.57,2.12,4.21,
417,1661559999317,-0.8395,-0.2663,0.1157,-28.17,-3.04,4.3,
418,1661559999317,-0.9249,0.0003,0.3032,-26.56,1.61,4.85,
419,1661559999318,-0.7955,-0.0637,0.3066,-23.86,2.54,4.21,
420,1661559999318,-0.9723,0.0398,0.1045,-22.57,0.09,5.75,
421,1661559999319,-0.8805,-0.0241,0.3027,-22.48,8.63,2.56,
422,1661559999319,-1.0382,-0.0115,0.5307,-21.58,8.88,7.13,
423,1661559999319,-0.8497,0.4353,0.3916,-24.28,13.7,2.66,
424,1661559999320,-0.8707,0.2532,0.1426,-20.37,8.3,8.41,
425,1661559999320,-0.9215,0.0393,0.0742,-20.68,8.71,8.22,
426,1661559999321,-0.9064,0.6424,0.1387,-17.87,1.52,1.65,
427,1661559999321,-0.8439,0.2166,-0.0777,-18.77,1.28,6.03,
428,1661559999322,-0.9274,0.5886,0.1738,-17.47,7.53,3.2,
429,1661559999322,-0.9713,0.7102,0.145,-15.58,7.7,9.31,
430,1661559999323,-0.8019,0.4099,-0.0845,-12.77,6.1,10.22,
431,1661559999323,-0.7696,0.6658,-0.0723,-8.57,13.45,4.3,
432,1661559999323,-0.7184,0.3167,-0.1582,-3.68,10.4,8.13,
433,1661559999324,-0.8097,0.572,0.0249,-3.59,11.0,3.2,
434,1661559999325,-0.7613,0.6653,0.0757,-1.68,7.27,3.57,
435,1661559999325,-0.8546,-0.0232,-0.2588,-1.08,-3.47,4.21,
436,1661559999325,-0.7794,0.3601,-0.0269,-4.78,-9.46,0.38,
437,1661559999326,-1.0304,0.2229,0.1553,-0.18,-11.49,4.3,
438,1661559999326,-0.8121,-0.1692,-0.0899,1.8,-12.52,4.76,
439,1661559999327,-1.1212,0.1975,0.4726,-0.08,-9.82,6.3,
440,1661559999327,-1.0201,0.1043,0.8154,-5.17,2.38,4.58,
441,1661559999328,-0.9635,0.0178,0.3784,-7.08,-8.2,3.57,
442,1661559999328,-0.9918,0.0584,-0.0918,-6.68,-7.69,1.02,
443,1661559999328,-0.8844,0.0432,0.7304,-4.58,3.05,4.94,
444,1661559999329,-1.1363,0.2581,0.6914,-4.68,6.34,4.03,
445,1661559999329,-0.8673,0.239,-0.3101,1.22,7.78,3.02,
446,1661559999330,-0.9371,-0.2068,-0.395,-0.49,3.81,6.39,
447,1661559999330,-1.0533,0.555,0.5229,-5.39,15.32,4.3,
448,1661559999331,-1.0382,0.4099,0.1533,-2.38,-14.21,5.2,
449,1661559999331,-0.9674,-0.2077,-0.7691,-4.17,-10.65,2.29,
450,1661559999332,-1.0519,0.3338,0.2148,-5.17,-2.03,-0.99,
451,1661559999332,-1.1871,-0.1599,0.3408,-5.98,-5.24,2.01,
452,1661559999332,-1.233,0.117,0.2402,-7.78,-0.0,-1.72,
453,1661559999333,-1.1056,-0.1438,0.2095,-6.48,3.64,-3.81,
454,1661559999333,-1.1603,-0.3772,0.1802,-6.07,2.54,-3.72,
455,1661559999334,-1.1368,0.1106,0.4385,-9.98,18.78,-5.37,
456,1661559999334,-1.1002,-0.3318,0.063,-10.28,12.1,0.38,
457,1661559999335,-1.0831,-0.3498,-0.335,-14.37,2.45,-4.09,
458,1661559999335,-1.2706,-0.0178,0.334,-13.78,-0.68,-5.0,
459,1661559999336,-1.1612,-0.6721,-0.1587,-12.57,-7.27,-2.36,
460,1661559999336,-1.1251,-0.2566,-0.4346,-17.97,-17.08,-3.17,
461,1661559999337,-1.3126,-0.4948,0.519,-20.17,-5.16,-5.74,
462,1661559999337,-1.1695,-0.4118,0.4731,-24.98,-3.13,-4.91,
463,1661559999338,-1.1202,-0.2239,0.123,-28.56,-6.67,-2.9,
464,1661559999338,-1.1442,-0.4787,0.2226,-25.56,-0.58,4.03,
465,1661559999339,-1.3238,-0.2932,0.5688,-27.27,10.23,-1.08,
466,1661559999339,-1.1627,-0.1452,0.5561,-24.67,18.52,0.66,
467,1661559999340,-1.1666,-0.3694,0.0112,-27.77,15.9,-1.63,
468,1661559999340,-1.0182,0.2288,0.001,-29.07,8.46,-1.36,
469,1661559999341,-1.0138,-0.2571,0.1899,-28.99,8.21,-0.35,
470,1661559999341,-0.9703,0.0442,-0.2974,-25.47,2.54,-0.26,
471,1661559999342,-1.0152,0.0481,-0.231,-25.86,7.02,-0.9,
472,1661559999342,-0.9405,-0.1213,0.1455,-29.57,7.87,1.02,
473,1661559999342,-1.0133,0.22,0.2749,-29.07,0.35,-2.81,
474,1661559999343,-0.8234,0.0164,-0.1651,-24.08,-2.7,-0.44,
475,1661559999343,-0.942,0.013,0.2846,-24.87,8.13,-3.08,
476,1661559999344,-0.8937,0.2044,0.2632,-26.08,12.52,-2.55,
477,1661559999344,-0.9332,-0.1755,-0.1553,-23.57,10.33,-0.35,
478,1661559999345,-0.8649,0.3294,0.3271,-25.97,11.43,-1.72,
479,1661559999345,-0.943,-0.0051,0.1992,-22.08,-1.18,1.19,
480,1661559999346,-0.8951,-0.1301,-0.021,-20.96,-0.34,4.03,
481,1661559999346,-0.9405,0.2654,0.1972,-21.27,4.91,-0.26,
482,1661559999347,-0.964,-0.1457,0.2929,-21.47,-0.34,5.57,
483,1661559999347,-0.9659,0.0354,0.063,-19.38,-11.84,2.75,
484,1661559999347,-0.9303,0.1907,0.5454,-15.08,-0.84,6.58,
485,1661559999348,-0.8556,0.0413,0.3706,-18.68,10.23,8.68,
486,1661559999348,-1.0358,0.177,0.0112,-19.77,10.49,6.94,
487,1661559999349,-0.8966,0.2,-0.0137,-15.08,17.42,11.32,
488,1661559999349,-1.0026,0.239,0.4565,-15.08,15.73,6.49,
489,1661559999350,-0.7574,0.5574,-0.2598,-6.97,6.27,7.4,
490,1661559999350,-0.7877,0.1126,-0.646,-5.08,-2.45,9.4,
491,1661559999351,-0.7853,0.8094,0.313,-8.07,9.3,4.03,
492,1661559999351,-0.8546,0.7854,0.2236,-2.49,-2.96,2.84,
493,1661559999352,-0.732,0.1428,-0.7959,-2.97,-7.36,2.66,
494,1661559999352,-0.8443,0.6848,-0.042,-3.57,1.09,2.47,
495,1661559999352,-0.8556,0.3479,0.4497,-1.88,0.16,5.39,
496,1661559999353,-0.8922,0.303,0.2158,-2.68,-9.22,-2.36,
497,1661559999353,-0.8985,0.4851,-0.0132,1.02,-6.93,0.11,
498,1661559999354,-1.0162,-0.0393,0.3823,-0.78,1.02,-0.44,
499,1661559999354,-1.0255,0.47,0.52,-1.39,6.77,-1.45,
500,1661559999355,-1.086,0.0598,0.1001,0.32,4.99,0.38,
501,1661559999355,-1.0812,-0.2053,-0.0552,-0.08,3.22,-0.81,
502,1661559999356,-1.0426,0.2381,0.2178,-4.97,2.21,0.66,
503,1661559999356,-1.0748,0.01,0.3369,-2.68,0.76,0.2,
504,1661559999356,-0.8961,-0.1999,-0.2857,-3.28,-4.14,1.19,
505,1661559999357,-1.0709,-0.0046,0.0635,-3.39,-2.61,-6.47,
506,1661559999357,-1.1637,-0.1531,0.3159,-9.67,-11.68,-1.27,
507,1661559999358,-1.1642,-0.2263,0.1084,-9.48,-11.25,-3.54,
508,1661559999358,-1.0704,-0.0447,-0.0059,-2.88,3.98,-0.26,
509,1661559999360,-1.1075,-0.3611,0.2129,-7.67,14.8,1.65,
510,1661559999360,-1.1417,0.1111,0.3994,-11.06,11.67,-1.36,
511,1661559999361,-1.0348,-0.4011,-0.125,-7.67,0.68,2.11,
512,1661559999361,-1.1876,-0.0505,0.1489,-6.68,7.44,-2.81,
513,1661559999362,-1.1168,0.2483,0.1992,-7.78,2.71,-1.45,
514,1661559999362,-1.1134,-0.4192,-0.0899,-15.78,6.85,2.93,
515,1661559999362,-1.1359,0.0271,0.0801,-18.77,8.54,-6.19,
516,1661559999362,-1.0851,0.0042,-0.0117,-17.67,-4.4,-0.72,
517,1661559999363,-1.194,-0.3034,0.0049,-14.37,-2.7,-3.36,
518,1661559999363,-1.1988,0.0188,0.2807,-14.07,6.44,-2.64,
519,1661559999364,-1.2672,-0.5119,0.105,-20.77,-0.42,0.75,
520,1661559999364,-1.2452,-0.2722,0.2759,-27.77,0.09,-3.91,
521,1661559999364,-1.232,-0.0383,0.5112,-25.18,3.64,-0.99,
522,1661559999366,-1.1573,-0.6545,-0.0303,-22.08,11.93,0.11,
523,1661559999366,-1.1232,-0.049,0.1782,-25.47,13.03,1.37,
524,1661559999366,-1.2467,-0.4035,0.539,-28.27,14.8,-0.99,
525,1661559999366,-1.0821,-0.3899,-0.2285,-27.07,-6.09,1.19,
526,1661559999367,-1.1183,-0.1677,0.1435,-27.57,1.28,-1.91,
527,1661559999367,-1.0113,-0.3835,0.5053,-31.07,5.67,1.02,
528,1661559999368,-1.1412,-0.195,0.0566,-31.66,0.93,-0.17,
529,1661559999368,-0.9493,-0.051,-0.251,-27.47,3.89,7.77,
530,1661559999369,-1.1061,-0.2746,0.4927,-27.18,7.37,4.21,
531,1661559999369,-1.0074,0.1609,0.3388,-24.28,3.64,6.76,
532,1661559999369,-0.8756,-0.1794,-0.1494,-26.98,1.86,3.57,
533,1661559999370,-0.8458,0.2918,0.2573,-28.87,14.46,3.3,
534,1661559999370,-0.8463,0.1316,0.0088,-25.66,8.37,1.19,
535,1661559999371,-0.8087,-0.1321,-0.1411,-25.77,8.13,0.93,
536,1661559999371,-0.8668,0.3714,0.0346,-21.07,6.1,0.29,
537,1661559999372,-0.8624,0.3391,0.1704,-21.58,-0.08,-0.26,
538,1661559999372,-0.9781,0.241,0.2734,-23.38,1.78,1.47,
539,1661559999373,-0.8585,0.3626,0.0678,-24.49,4.91,1.83,
540,1661559999373,-0.7428,0.1707,0.0053,-20.37,7.53,2.2,
541,1661559999374,-0.8497,0.3513,0.2861,-19.87,10.66,-4.0,
542,1661559999374,-0.8595,0.3572,0.3403,-15.67,8.46,-0.99,
543,1661559999374,-0.7877,0.031,0.0107,-12.57,8.3,0.75,
544,1661559999375,-0.8404,0.4534,0.1245,-14.77,11.5,4.21,
545,1661559999375,-0.9293,0.3626,0.1787,-15.47,9.23,2.47,
546,1661559999376,-0.7486,0.0735,-0.0591,-14.28,2.71,8.77,
547,1661559999376,-0.8082,0.2527,-0.2905,-13.38,-3.97,4.58,
548,1661559999377,-0.7325,0.0945,0.105,-6.88,-0.08,5.66,
549,1661559999377,-0.8834,0.2952,0.0654,0.72,-4.64,8.94,
550,1661559999378,-0.8336,0.2571,-0.1367,0.52,-7.02,11.69,
551,1661559999378,-0.6734,-0.0691,-0.1245,-6.48,-0.08,11.05,
552,1661559999379,-1.0221,0.3504,0.2373,-9.17,5.75,7.86,
553,1661559999379,-0.8312,-0.0129,-0.1182,-4.68,-0.0,13.32,
554,1661559999380,-1.0309,0.2117,0.2895,-1.98,-1.87,10.22,
555,1661559999380,-0.8468,0.5149,0.4902,-1.59,8.37,4.12,
556,1661559999380,-0.9396,0.1048,-0.0791,-3.48,-13.45,11.51,
557,1661559999381,-0.9689,0.1223,-0.4151,-3.68,-4.4,5.75,
558,1661559999381,-1.0773,0.4651,0.8335,-3.88,2.62,8.94,
559,1661559999382,-1.0572,0.1804,0.0312,-4.41,-6.02,2.93,
560,1661559999382,-0.9278,0.4304,-0.4483,-1.68,-6.76,-0.99,
561,1661559999383,-0.8815,0.2132,-0.0381,1.31,5.84,0.2,
562,1661559999383,-1.0382,0.2991,0.6323,0.02,12.26,-3.54,
563,1661559999383,-0.9239,0.2581,-0.3916,2.72,-0.17,-5.46,
564,1661559999385,-1.0602,-0.4172,-0.2779,-1.68,-0.34,-4.0,
565,1661559999385,-1.1739,0.2884,0.7549,-7.58,5.08,-5.74,
566,1661559999385,-1.2286,0.1809,0.5171,-7.28,-2.11,-8.65,
567,1661559999386,-1.0568,-0.4382,-0.4556,-4.29,-6.85,-4.46,
568,1661559999386,-1.0582,-0.1052,-0.0117,-7.38,3.72,-4.46,
569,1661559999386,-1.2037,-0.2639,0.625,-8.28,6.85,-2.27,
570,1661559999387,-1.1764,-0.3611,-0.0547,-10.07,-5.33,-8.83,
571,1661559999387,-1.2379,-0.4436,-0.1758,-11.38,-9.89,-0.99,
572,1661559999389,-1.2213,-0.282,0.6484,-16.07,2.12,-3.26,
573,1661559999389,-1.214,-0.0666,0.3291,-18.68,4.74,-2.0,
574,1661559999389,-0.9752,-0.6413,-0.5152,-17.47,-3.64,0.84,
575,1661559999389,-1.1686,-0.4573,-0.1621,-18.48,2.21,-0.26,
576,1661559999390,-1.2281,0.1741,0.8296,-16.77,7.44,2.56,
577,1661559999390,-1.1515,-0.4968,0.0776,-17.67,4.06,0.93,
578,1661559999391,-1.0187,-0.0613,-0.3565,-26.28,4.06,-2.18,
579,1661559999391,-1.1437,-0.0427,0.2871,-32.96,5.34,1.37,
580,1661559999391,-1.2291,-0.0539,0.4707,-28.56,4.74,1.92,
581,1661559999392,-1.1876,-0.0266,-0.0943,-20.17,2.21,-2.9,
582,1661559999392,-1.0846,-0.2395,-0.0728,-20.48,0.52,3.66,
583,1661559999393,-1.316,0.1092,0.5019,-28.76,7.37,1.1,
584,1661559999393,-1.1075,-0.0422,0.4101,-28.37,11.5,-0.35,
585,1661559999394,-1.0763,-0.4343,-0.1182,-29.57,13.87,3.3,
586,1661559999394,-1.0416,0.2293,0.166,-29.37,19.21,1.92,
587,1661559999395,-1.0782,-0.3381,0.1606,-25.07,10.23,4.58,
588,1661559999395,-0.9234,-0.1189,-0.0542,-25.97,1.52,3.75,
589,1661559999396,-1.0387,0.0706,0.0122,-28.08,-0.08,4.21,
590,1661559999396,-1.0265,-0.282,0.0166,-26.28,-2.54,5.57,
591,1661559999397,-0.9537,-0.1374,-0.0401,-27.86,-8.53,4.12,
592,1661559999397,-0.962,-0.0691,0.3379,-30.07,2.03,4.76,
593,1661559999397,-0.8551,-0.0554,0.0283,-25.27,-5.24,7.31,
594,1661559999398,-0.8605,0.0901,0.2099,-24.47,6.44,9.13,
595,1661559999398,-0.9718,-0.1389,0.6172,-22.28,9.23,8.04,
596,1661559999399,-1.2013,0.0315,0.4765,-25.66,4.74,6.76,
597,1661559999399,-0.8033,0.3416,-0.0313,-23.97,1.95,3.75,
598,1661559999400,-0.9088,-0.0383,0.3286,-22.17,16.41,6.03,
599,1661559999400,-0.8346,0.5872,0.2876,-20.17,19.21,7.58,
600,1661559999401,-0.7574,0.2146,-0.4043,-14.97,5.84,7.13,
601,1661559999401,-0.8155,0.1594,-0.1909,-16.28,4.82,6.3,
602,1661559999402,-0.9557,0.6927,0.4468,-16.17,2.96,3.39,
603,1661559999402,-0.7687,0.3069,-0.2359,-18.37,0.68,7.58,
604,1661559999403,-0.7858,0.617,-0.2119,-13.78,7.87,2.29,
605,1661559999403,-0.6739,0.4475,0.0088,-8.07,9.47,7.31,
606,1661559999403,-0.8102,0.2376,-0.0606,-3.28,8.54,4.85,
607,1661559999404,-0.7452,0.635,-0.0757,0.32,13.53,2.75,
608,1661559999404,-0.7755,0.1243,-0.2349,-0.49,1.86,10.41,
609,1661559999405,-0.7623,0.1526,-0.0781,-4.38,-0.0,4.03,
610,1661559999405,-0.899,0.3762,0.0971,-7.38,-9.63,1.37,
611,1661559999406,-0.9835,0.0037,-0.0596,-2.9,-14.88,3.3,
612,1661559999406,-0.753,0.0208,-0.1392,0.12,-17.41,3.02,
613,1661559999406,-1.0538,0.1687,0.5893,-0.58,-1.94,0.2,
614,1661559999407,-0.9176,-0.1194,0.5669,-1.4,3.81,6.21,
615,1661559999407,-0.9991,0.0779,-0.228,-8.18,-9.56,4.03,
616,1661559999408,-0.9806,0.0115,0.0117,-9.98,0.59,12.33,
617,1661559999408,-1.0641,0.0764,0.893,-7.98,5.92,3.66,
618,1661559999409,-0.9698,0.2337,0.0073,-1.39,1.28,2.2,
619,1661559999409,-0.9015,-0.2771,-0.6631,0.61,-12.42,4.67,
620,1661559999410,-1.1066,0.4104,0.6377,-7.67,10.4,1.83,
621,1661559999410,-1.0729,0.4475,0.5996,-4.07,1.86,0.75,
622,1661559999411,-1.0001,-0.2927,-0.7451,-4.88,-9.98,-1.45,
623,1661559999411,-0.9982,0.3216,-0.1001,-7.38,-1.77,-5.65,
624,1661559999411,-1.1901,-0.0359,0.4453,-5.39,-2.54,-2.81,
625,1661559999412,-1.1334,-0.0022,0.0249,-10.07,1.19,-3.54,
626,1661559999413,-1.0904,0.0916,0.0635,-8.48,-0.34,-6.29,
627,1661559999413,-1.0509,-0.2253,0.2495,-9.08,1.35,-2.46,
628,1661559999413,-1.2316,0.0203,0.4326,-7.4,7.2,-10.65,
629,1661559999414,-1.1246,-0.1794,-0.0073,-7.67,9.4,-5.28,
630,1661559999414,-1.1764,-0.4265,-0.1724,-12.68,6.27,-6.01,
631,1661559999415,-1.2589,0.0501,0.2407,-20.28,5.92,-4.0,
632,1661559999415,-1.2008,-0.6433,-0.0713,-14.37,-1.27,-2.73,
633,1661559999416,-1.1549,-0.2058,-0.1626,-15.38,-8.96,-2.9,
634,1661559999416,-1.3512,-0.3752,0.3164,-19.97,-9.98,-4.91,
635,1661559999417,-1.0758,-0.5578,0.355,-21.97,-7.27,0.29,
636,1661559999417,-1.2936,-0.2209,0.3633,-27.97,1.19,0.84,
637,1661559999418,-1.1783,-0.2492,0.4614,-29.97,7.2,4.12,
638,1661559999418,-1.2545,-0.4084,0.1186,-28.56,-4.14,-0.81,
639,1661559999419,-1.1339,-0.052,0.5434,-25.57,10.07,1.92,
640,1661559999419,-1.2101,-0.3132,0.4345,-23.77,12.1,3.48,
641,1661559999419,-1.0514,0.0569,-0.291,-28.37,13.96,0.93,
642,1661559999420,-1.0411,-0.1511,0.1953,-30.67,16.92,1.74,
643,1661559999420,-1.1124,-0.1574,0.4428,-33.97,13.79,1.1,
644,1661559999421,-0.9508,0.239,-0.4541,-29.37,-12.85,-0.53,
645,1661559999421,-0.8956,-0.1496,-0.3316,-26.76,6.44,0.93,
646,1661559999423,-1.0826,0.1951,0.6797,-26.87,10.16,-3.45,
647,1661559999423,-0.9757,0.218,-0.0845,-28.56,-0.42,-1.08,
648,1661559999423,-0.961,-0.0041,-0.0708,-28.15,2.62,-3.17,
649,1661559999423,-0.8961,0.305,0.4507,-28.17,11.67,-2.81,
650,1661559999424,-0.942,-0.0378,0.0088,-25.77,8.54,-3.08,
651,1661559999424,-0.9034,0.2151,0.2334,-23.97,12.43,-4.46,
652,1661559999425,-1.0123,0.1863,0.3061,-21.87,5.41,-1.91,
653,1661559999425,-0.9381,-0.0837,-0.0,-21.47,-1.61,1.56,
654,1661559999425,-0.8639,0.2644,0.1367,-23.57,6.01,2.38,
655,1661559999427,-0.961,-0.1076,0.1606,-22.69,8.71,0.38,
656,1661559999427,-0.8434,-0.0447,-0.1719,-23.57,-2.37,2.84,
657,1661559999427,-0.9635,0.2464,0.6318,-20.68,-1.44,4.12,
658,1661559999427,-0.8932,0.0476,0.7998,-13.78,0.59,6.85,
659,1661559999428,-0.9435,0.0447,-0.1597,-14.77,-1.61,1.56,
660,1661559999428,-0.8561,0.2156,-0.0835,-17.97,12.69,7.4,
661,1661559999429,-0.9064,0.198,0.6977,-17.87,17.76,8.32,
662,1661559999429,-0.7374,0.428,-0.2974,-13.2,5.25,11.23,
663,1661559999430,-0.7501,0.1052,-0.5352,-8.77,-0.58,8.87,
664,1661559999430,-0.9147,0.3245,0.0771,-5.49,11.09,5.94,
665,1661559999431,-0.8497,0.7019,0.2778,-0.08,3.22,6.94,
666,1661559999431,-0.671,0.0427,-0.9204,-6.38,-7.43,10.41,
667,1661559999432,-0.8419,0.5872,-0.1436,-10.07,-0.0,9.22,
668,1661559999432,-0.8317,0.3899,0.4575,-6.07,2.79,6.76,
669,1661559999432,-0.8478,0.26,0.1435,-3.39,-8.29,6.49,
670,1661559999433,-0.878,0.4534,-0.2334,2.9,-9.46,3.11,
671,1661559999433,-0.9376,0.0882,0.2754,0.12,-5.66,2.11,
672,1661559999434,-0.9664,0.3714,0.5771,-1.28,-1.18,-1.91,
673,1661559999434,-1.0333,0.0442,0.0517,0.02,0.68,0.47,
674,1661559999435,-1.0519,-0.2175,-0.0972,-1.78,-0.42,-0.17,
675,1661559999435,-1.0372,0.2088,0.2929,-4.49,1.52,-2.18,
676,1661559999436,-1.0953,0.0569,0.4741,-1.59,-0.51,-0.63,
677,1661559999436,-0.7047,-0.2488,-0.4121,-0.88,-13.45,4.12,
678,1661559999438,-0.9669,-0.0271,-0.1128,-3.68,-5.76,-2.46,
679,1661559999438,-1.0597,-0.2781,0.4746,-10.18,2.62,-0.17,
680,1661559999438,-1.233,-0.2458,0.0967,-7.87,-13.36,-2.36,
681,1661559999438,-1.1061,-0.0373,-0.1763,-7.38,-9.46,0.93,
682,1661559999438,-1.0436,-0.2087,0.3471,-6.48,3.48,0.38,
683,1661559999439,-1.1153,-0.0012,0.2929,-8.48,12.19,-0.99,
684,1661559999439,-0.9645,-0.3581,-0.2383,-9.98,2.45,-0.99,
685,1661559999440,-1.1783,-0.0007,0.3867,-15.78,7.27,-3.54,
686,1661559999440,-1.2071,0.0432,0.0063,-9.17,-1.77,-3.81,
687,1661559999441,-1.1305,-0.3957,-0.272,-10.48,7.61,-1.45,
688,1661559999441,-1.1818,-0.0315,0.0722,-22.29,8.46,-4.82,
689,1661559999441,-1.1568,0.0178,0.0259,-21.65,-1.51,-1.36,
690,1661559999442,-1.234,-0.2229,-0.0689,-16.97,-5.92,-2.0,
691,1661559999442,-1.2677,0.0462,0.3564,-14.68,2.21,-4.64,
692,1661559999443,-1.2257,-0.3293,0.1885,-20.75,-2.7,-2.55,
693,1661559999443,-1.1705,0.138,0.3252,-26.98,4.91,-7.83,
694,1661559999443,-1.1407,-0.3816,0.271,-24.57,7.37,-2.18,
695,1661559999444,-1.1778,-0.5202,0.1069,-24.08,13.45,-4.27,
696,1661559999444,-1.1232,0.0296,0.1821,-25.97,9.73,-6.73,
697,1661559999444,-1.2589,-0.3762,0.3428,-24.87,9.81,-4.91,
698,1661559999445,-1.1022,-0.2859,-0.0166,-27.66,-6.76,-4.82,
699,1661559999445,-1.1876,-0.1413,0.1059,-27.66,0.68,-2.18,
700,1661559999446,-0.9425,-0.4724,0.2749,-29.27,3.48,3.94,
701,1661559999447,-1.0841,-0.0183,-0.0347,-32.45,5.17,2.38,
702,1661559999447,-0.9772,-0.261,0.2192,-32.87,3.38,3.57,
703,1661559999447,-1.1031,-0.2717,0.352,-33.46,-1.27,2.66,
704,1661559999448,-1.0382,0.0803,0.3042,-25.66,0.35,1.92,
705,1661559999448,-0.9103,-0.1736,0.0742,-26.67,4.82,5.48,
706,1661559999449,-0.8951,0.2512,0.2402,-29.17,18.11,-1.82,
707,1661559999449,-0.8512,0.1385,0.0625,-28.47,16.92,2.01,
708,1661559999450,-0.9347,-0.0227,-0.0596,-27.37,11.93,2.66,
709,1661559999450,-0.796,0.3118,-0.0435,-22.37,1.09,2.2,
710,1661559999451,-0.8717,0.3157,0.0132,-24.28,-0.84,6.67,
711,1661559999452,-0.964,0.2136,0.2212,-23.07,0.26,0.93,
712,1661559999452,-0.8751,0.3582,-0.0318,-23.07,-0.17,2.75,
713,1661559999453,-0.9112,0.2044,0.1391,-23.38,4.24,2.01,
714,1661559999453,-0.9283,0.4422,0.3838,-21.18,9.98,2.93,
715,1661559999454,-0.817,0.2859,0.2295,-17.58,8.63,6.21,
716,1661559999454,-0.8282,0.031,0.1382,-16.57,16.08,0.75,
717,1661559999454,-0.8155,0.4109,0.2749,-16.57,19.88,1.02,
718,1661559999455,-0.8673,0.076,-0.1787,-16.37,12.02,1.56,
719,1661559999455,-0.7316,0.2327,-0.1856,-16.57,5.92,2.11,
720,1661559999456,-0.8717,0.3289,-0.0225,-12.18,3.31,3.11,
721,1661559999456,-0.7008,0.093,-0.0723,-5.08,-1.44,5.2,
722,1661559999457,-0.7911,0.1887,-0.3653,-5.58,-7.6,5.39,
723,1661559999457,-0.7584,0.1175,0.1367,-3.08,1.28,11.51,
724,1661559999458,-0.8609,0.1018,0.0415,-10.18,-10.23,8.32,
725,1661559999458,-0.9151,0.1936,-0.2686,-13.78,-14.88,9.77,
726,1661559999459,-0.7984,-0.0007,-0.0088,-4.88,-2.7,3.85,
727,1661559999459,-1.0148,0.1809,0.583,-1.39,9.3,4.3,
728,1661559999459,-0.7609,0.3914,0.2163,-0.38,8.63,6.49,
729,1661559999460,-0.9313,-0.0031,-0.4243,-2.88,-3.21,5.48,
730,1661559999460,-0.9703,0.4461,0.2632,-8.97,0.42,3.48,
731,1661559999461,-1.0358,0.3992,0.5805,-10.38,-7.69,8.5,
732,1661559999461,-1.0279,0.1624,0.0097,-2.58,-9.22,8.94,
733,1661559999462,-0.8971,0.3758,-0.4004,1.02,-7.53,8.04,
734,1661559999462,-0.9796,0.0984,0.228,-0.88,-0.25,5.94,
735,1661559999463,-1.0465,0.4466,0.3789,-4.58,3.55,-0.63,
736,1661559999463,-0.9537,0.2664,-0.1485,-5.08,-15.22,1.37,
737,1661559999463,-1.0607,-0.3606,-0.3731,-2.49,-13.11,0.93,
738,1661559999464,-1.1822,0.2722,0.8403,-3.88,2.96,-0.9,
739,1661559999465,-1.1725,-0.2253,0.2236,-6.18,2.96,4.03,
740,1661559999465,-0.9303,-0.3181,-0.5357,-7.98,-2.96,-0.53,
741,1661559999466,-1.1456,-0.0769,0.4765,-9.28,2.54,-1.82,
742,1661559999466,-1.2233,-0.2229,0.729,-8.77,2.71,-0.9,
743,1661559999466,-1.1481,-0.3249,-0.1924,-10.18,-10.15,2.2,
744,1661559999467,-1.2735,-0.4153,-0.2363,-14.97,-6.6,-0.35,
745,1661559999467,-1.2101,-0.2907,0.7007,-22.08,-2.61,1.83,
746,1661559999468,-1.2003,-0.1057,0.2285,-17.18,-6.0,-1.54,
747,1661559999468,-1.0026,-0.53,-0.374,-15.67,-6.17,4.49,
748,1661559999469,-1.2428,-0.0881,0.3989,-17.97,3.38,-0.72,
749,1661559999469,-1.2574,-0.1721,0.622,-21.18,3.98,0.66,
750,1661559999471,-1.2408,-0.4333,0.372,-28.17,4.24,1.92,
751,1661559999471,-1.0992,-0.0759,-0.103,-29.37,5.25,0.93,
752,1661559999471,-1.0812,-0.0871,-0.0464,-28.27,12.94,1.28,
753,1661559999471,-1.2555,0.0213,0.5815,-26.98,14.63,0.29,
754,1661559999472,-1.2306,0.0076,0.0454,-26.38,-3.47,-1.82,
755,1661559999472,-1.1984,-0.1408,-0.0952,-24.47,-3.04,3.2,
756,1661559999473,-1.233,0.2761,0.5796,-28.56,13.53,-5.19,
757,1661559999473,-1.0397,-0.219,0.1787,-29.88,15.56,-2.0,
758,1661559999473,-1.1002,-0.2522,-0.0962,-31.97,9.9,-4.91,
759,1661559999474,-1.0411,0.1707,-0.0108,-29.27,5.08,-4.09,
760,1661559999474,-1.0856,-0.2463,0.2392,-24.96,10.49,-0.26,
761,1661559999475,-0.9669,0.0276,0.1841,-27.79,9.3,-4.82,
762,1661559999475,-1.0006,-0.1018,-0.249,-28.98,-0.0,1.37,
763,1661559999476,-0.8043,-0.1916,-0.0957,-30.87,0.85,1.92,
764,1661559999476,-0.9674,0.0008,0.3916,-30.76,3.89,0.38,
765,1661559999477,-0.8258,-0.2458,0.0835,-28.67,0.16,-0.26,
766,1661559999477,-0.7965,-0.0857,-0.1631,-25.25,-10.99,-4.55,
767,1661559999478,-0.8697,0.1404,0.3637,-21.85,1.19,-1.27,
768,1661559999478,-0.9049,-0.1086,0.7212,-23.67,9.64,-1.08,
769,1661559999478,-0.8614,0.2039,-0.1201,-27.86,8.71,-2.18,
770,1661559999479,-0.7726,0.0095,0.1772,-27.97,14.89,1.28,
771,1661559999479,-1.0045,0.2986,0.75,-24.47,16.75,1.65,
772,1661559999480,-0.7906,0.3343,-0.3179,-20.37,2.79,0.75,
773,1661559999480,-0.672,0.0374,-0.6236,-16.88,2.45,2.2,
774,1661559999481,-0.7809,0.5281,0.1797,-17.38,14.29,4.03,
775,1661559999481,-0.8302,0.3972,0.0659,-16.77,5.84,2.2,
776,1661559999482,-0.8194,0.2801,-0.4712,-18.86,9.23,5.57,
777,1661559999482,-0.775,0.6385,-0.0171,-15.58,9.06,3.3,
778,1661559999483,-0.7359,0.3919,0.0395,-12.07,3.48,4.12,
779,1661559999483,-0.7569,0.4959,0.0552,-4.97,1.61,0.38,
780,1661559999483,-0.65,0.3782,-0.3042,-1.48,-4.9,5.57,
781,1661559999484,-0.7945,0.0237,-0.2012,-4.49,-2.28,4.12,
782,1661559999484,-0.8732,0.512,0.3891,-5.68,4.74,2.38,
783,1661559999485,-0.9386,0.2117,0.1699,-2.49,-2.28,4.03,
784,1661559999485,-0.7965,-0.1223,-0.3218,-5.78,-8.96,0.38,
785,1661559999486,-0.9484,0.3474,0.3164,-4.29,-9.72,1.74,
786,1661559999486,-0.9435,-0.195,0.5107,-1.78,-8.96,1.19,
787,1661559999487,-0.9557,0.0091,-0.2163,0.32,-20.21,1.28,
788,1661559999487,-0.9938,0.0344,-0.0606,-3.28,-8.88,1.92,
789,1661559999488,-0.9117,-0.1047,0.7383,-7.78,-1.01,-0.44,
790,1661559999488,-1.1324,0.1795,0.2368,-9.58,1.02,3.02,
791,1661559999488,-0.7892,-0.1975,-0.3999,-7.48,3.64,0.75,
792,1661559999489,-1.1368,0.0574,0.1543,-4.68,5.5,-1.54,
793,1661559999489,-1.0753,0.3504,0.3852,-2.78,6.1,1.19,
794,1661559999490,-1.0748,-0.1985,-0.1021,-2.18,-9.56,5.48,
795,1661559999490,-1.1388,0.0803,-0.1665,-7.4,-8.2,1.56,
796,1661559999490,-1.088,0.2591,0.1347,-7.38,-9.13,-1.91,
797,1661559999491,-1.1124,-0.2219,0.0669,-9.46,-0.25,2.66,
798,1661559999492,-1.0709,0.2434,0.0952,-7.4,9.73,-0.72,
799,1661559999492,-1.0709,0.0467,0.0141,-10.28,5.41,0.2,
800,1661559999493,-1.2526,-0.1003,0.3188,-10.97,8.54,-1.63,
801,1661559999493,-1.1915,0.1155,0.3222,-8.68,3.81,-2.18,
802,1661559999493,-1.1207,-0.4792,-0.1597,-10.97,-3.21,-0.72,
803,1661559999493,-1.1173,0.1966,0.2422,-15.4,12.19,-9.66,
804,1661559999494,-1.1695,-0.4455,0.0088,-16.88,4.15,-8.19,
805,1661559999494,-1.1837,-0.6911,-0.2363,-20.77,-0.75,-5.37,
806,1661559999495,-1.233,0.034,0.1709,-19.36,-3.47,-5.74,
807,1661559999496,-1.4293,-0.449,0.414,-17.76,-12.78,-2.0,
808,1661559999496,-1.0909,-0.4358,-0.003,-27.47,-15.55,-4.64,
809,1661559999497,-1.2164,-0.0984,0.5039,-29.77,16.66,0.02,
810,1661559999497,-1.0538,-0.4206,0.3257,-29.57,12.19,0.93,
811,1661559999498,-1.1622,-0.1223,0.0693,-27.57,4.48,1.37,
812,1661559999498,-1.212,-0.3117,0.8979,-26.67,11.67,-1.08,
813,1661559999499,-1.2989,-0.0378,0.0278,-28.47,1.35,0.93,
814,1661559999499,-1.0045,0.0462,-0.5396,-28.29,4.57,-4.91,
815,1661559999500,-0.9669,-0.3025,0.2978,-35.26,31.63,-1.63,
816,1661559999500,-1.086,0.3308,0.5752,-34.56,4.74,-6.91,
817,1661559999501,-0.9571,-0.1438,-0.9873,-30.67,-11.16,0.38,
818,1661559999501,-1.13,-0.0432,0.3257,-24.17,9.81,-2.09,
819,1661559999502,-1.2218,0.4475,0.6924,-27.86,3.55,-1.82,
820,1661559999502,-0.8644,-0.0691,-0.5884,-35.26,-4.73,-0.81,
821,1661559999502,-0.9186,0.3054,0.2368,-31.77,6.68,-4.18,
822,1661559999505,-0.9015,0.156,0.5986,-30.36,10.33,-1.17,
823,1661559999505,-1.0406,0.1468,0.2114,-27.27,5.5,-4.82,
824,1661559999505,-0.9039,0.3089,-0.0708,-24.67,12.69,-1.91,
825,1661559999505,-0.9576,-0.1174,0.228,-22.48,2.88,-2.36,
826,1661559999505,-0.8111,0.3089,0.2617,-25.86,-0.08,-2.0,
827,1661559999506,-0.8341,0.1009,-0.0572,-22.77,1.52,0.75,
828,1661559999506,-0.6749,-0.1448,-0.2666,-22.87,6.51,7.13,
829,1661559999506,-0.9303,0.2454,0.459,-24.08,6.94,4.76,
830,1661559999507,-1.0548,0.0852,0.7075,-20.28,9.3,7.03,
831,1661559999507,-0.7726,-0.1096,0.0351,-18.77,-3.54,4.58,
832,1661559999508,-0.7526,0.1302,-0.2276,-17.29,-5.76,2.56,
833,1661559999508,-0.7272,0.1135,0.7558,-19.18,12.86,4.49,
834,1661559999508,-0.8194,0.3216,0.0346,-16.07,17.59,5.02,
835,1661559999509,-0.6793,0.1741,-0.6494,-12.37,9.81,7.95,
836,1661559999509,-0.8126,0.076,-0.1875,-14.97,16.32,9.31,
837,1661559999510,-0.8258,0.7527,0.7773,-10.09,10.91,3.66,
838,1661559999510,-0.631,-0.0295,-0.8584,-6.29,-10.4,9.86,
839,1661559999511,-0.6988,0.3494,-0.71,-6.18,-2.61,3.66,
840,1661559999511,-0.8771,0.5501,0.541,-7.08,4.48,4.12,
841,1661559999512,-0.8141,0.2478,0.3633,-8.28,1.86,5.2,
842,1661559999512,-0.819,0.4202,-0.4751,-5.28,-4.99,1.37,
843,1661559999512,-0.8526,0.2195,0.0039,-4.49,-6.67,2.47,
844,1661559999513,-1.0177,0.3552,0.6924,-1.98,-10.65,-0.99,
845,1661559999513,-0.8956,0.2571,0.0932,-0.2,-8.79,-3.26,
846,1661559999514,-0.9576,-0.1379,-0.1773,0.02,-7.1,1.37,
847,1661559999514,-1.0211,0.1321,0.2524,-6.48,9.81,-0.17,
848,1661559999515,-1.0607,0.24,0.5405,-6.39,5.34,-0.26,
849,1661559999515,-0.7648,-0.2571,-0.2837,-3.49,-2.61,-0.81,
850,1661559999516,-0.9952,0.0296,-0.2012,-4.38,-13.87,-0.53,
851,1661559999516,-1.1593,-0.3171,0.3838,-7.87,-5.33,6.39,
852,1661559999517,-1.2159,-0.239,-0.1079,-9.77,-19.7,2.38,
853,1661559999517,-1.107,-0.0652,-0.0747,-9.78,-2.03,-0.26,
854,1661559999518,-0.9913,-0.2336,0.3291,-8.5,-7.36,-2.09,
855,1661559999518,-1.1715,-0.2502,0.1137,-12.57,-5.83,1.02,
856,1661559999519,-1.0641,-0.1516,0.1748,-13.87,0.26,-3.72,
857,1661559999519,-1.2877,-0.2224,0.2124,-11.78,9.64,-1.45,
858,1661559999519,-1.1915,0.0667,0.0171,-11.18,1.45,-5.1,
859,1661559999520,-1.2252,-0.3415,0.229,-15.87,5.25,-2.55,
860,1661559999520,-1.3136,-0.1711,0.2876,-18.95,2.79,-7.09,
861,1661559999521,-1.1549,0.1165,-0.4112,-18.37,-7.69,-3.91,
862,1661559999521,-1.1871,-0.2292,-0.002,-15.38,2.03,-3.45,
863,1661559999522,-1.3487,0.1067,0.5908,-18.37,-1.01,-0.99,
864,1661559999522,-1.15,-0.2136,-0.0733,-21.67,-11.84,-1.91,
865,1661559999523,-1.2345,0.033,0.3989,-26.98,5.25,-3.72,
866,1661559999523,-1.1241,-0.0515,0.438,-27.07,8.13,-1.08,
867,1661559999523,-1.1798,-0.343,0.0732,-24.67,11.67,-2.81,
868,1661559999524,-1.2506,0.0164,0.4809,-22.08,16.08,-3.54,
869,1661559999525,-1.2535,-0.3777,0.0742,-25.47,8.8,-5.1,
870,1661559999525,-1.1402,-0.2907,-0.0801,-30.76,2.29,-4.18,
871,1661559999526,-1.2184,-0.0515,0.2051,-30.36,2.62,-3.91,
872,1661559999526,-1.0631,-0.4602,0.0864,-33.17,1.45,0.66,
873,1661559999527,-1.1783,-0.1306,-0.272,-32.36,-4.23,0.2,
874,1661559999527,-1.13,-0.1853,0.6001,-31.66,9.98,2.01,
875,1661559999528,-1.2384,-0.2502,0.2197,-33.77,-8.88,4.12,
876,1661559999528,-1.0553,-0.0173,-0.0591,-29.66,-5.16,-0.63,
877,1661559999528,-1.0582,-0.1257,0.6128,-31.46,14.46,-2.36,
878,1661559999529,-1.1197,0.0071,0.5971,-33.87,22.5,-3.08,
879,1661559999529,-0.858,0.176,-0.0977,-33.07,6.6,1.74,
880,1661559999530,-1.0128,-0.0451,0.187,-31.88,11.0,-1.45,
881,1661559999530,-0.9039,0.4348,0.2368,-22.48,7.44,-1.17,
882,1661559999531,-0.8219,0.0799,-0.3452,-23.07,3.81,0.02,
883,1661559999531,-0.8785,0.3142,0.1318,-28.67,9.81,-2.0,
884,1661559999532,-0.8224,0.3753,0.1719,-31.05,4.48,-1.72,
885,1661559999532,-0.8575,0.2556,0.0459,-29.88,-3.64,-1.72,
886,1661559999533,-0.9,0.429,0.0708,-21.18,2.21,-0.17,
887,1661559999533,-0.7858,0.2918,0.2915,-16.48,15.15,0.56,
888,1661559999533,-0.8297,0.2464,0.2807,-19.38,22.41,-1.27,
889,1661559999534,-0.7814,0.3191,-0.063,-21.97,18.02,-2.81,
890,1661559999534,-0.7911,0.1092,-0.0596,-21.18,13.2,-0.44,
891,1661559999535,-0.8175,0.3479,0.0825,-12.88,9.9,5.02,
892,1661559999535,-0.8131,0.2693,-0.0308,-11.47,6.6,3.94,
893,1661559999536,-0.5514,0.0701,-0.3223,-11.66,0.59,3.57,
894,1661559999536,-0.7408,0.1844,-0.2866,-10.18,-9.13,4.58,
895,1661559999537,-0.7213,-0.0334,0.1435,-7.98,-1.87,1.56,
896,1661559999537,-0.9215,0.0745,-0.063,-6.77,-9.72,2.29,
897,1661559999538,-0.9234,0.1155,-0.1885,-6.68,-9.3,7.95,
898,1661559999538,-0.7247,-0.0061,0.1958,-13.27,-4.57,6.85,
899,1661559999538,-1.0328,0.2439,0.6391,-12.48,2.79,4.76,
900,1661559999539,-0.8258,-0.0149,-0.0484,-6.38,-4.4,10.77,
901,1661559999539,-1.0792,0.0779,-0.2671,-2.4,-6.43,8.77,
902,1661559999540,-1.0509,0.4427,0.6162,-4.18,11.76,6.49,
903,1661559999540,-0.9576,0.198,0.5366,-9.98,6.34,9.49,
904,1661559999542,-0.8434,0.1936,-0.439,-10.18,0.16,3.48,
905,1661559999542,-0.8043,0.2376,-0.4356,-10.38,-10.65,0.56,
906,1661559999542,-0.9503,0.2229,0.3305,-1.08,-6.17,4.03,
907,1661559999542,-1.0011,0.3792,-0.0083,2.12,-12.18,0.02,
908,1661559999543,-1.0817,-0.1946,-0.3418,0.32,-9.56,5.2,
909,1661559999543,-1.2018,-0.0818,0.1621,-10.18,3.81,-1.08,
910,1661559999544,-1.1671,0.1668,0.7114,-10.88,-2.8,-2.09,
911,1661559999544,-1.0616,-0.3259,-0.0606,-6.48,-6.5,-1.17,
912,1661559999545,-1.0065,-0.0422,-0.0415,-3.81,2.77,-2.81,
913,1661559999545,-1.1901,-0.2488,0.582,-8.38,9.81,2.56,
914,1661559999545,-1.086,-0.2409,0.1094,-12.79,7.78,-1.27,
915,1661559999546,-1.1695,-0.1516,-0.2036,-18.68,-10.23,1.28,
916,1661559999546,-1.1656,-0.5241,-0.1958,-14.68,-8.37,0.02,
917,1661559999547,-1.2633,-0.2282,0.4238,-17.49,-2.61,3.2,
918,1661559999547,-1.2018,-0.1648,0.2612,-19.07,-6.0,5.11,
919,1661559999548,-1.0797,-0.4602,-0.3247,-18.28,-15.74,7.58,
920,1661559999548,-1.2057,-0.0686,0.4731,-22.37,-3.04,-1.36,
921,1661559999549,-1.2262,-0.343,0.8637,-23.27,6.27,-0.44,
922,1661559999549,-1.1866,-0.1921,-0.0952,-30.97,8.63,-5.19,
923,1661559999550,-1.128,-0.1096,-0.0581,-31.46,7.61,-1.45,
924,1661559999550,-1.34,-0.0285,0.8301,-29.37,20.72,-3.91,
925,1661559999550,-1.2618,0.1985,-0.0098,-22.57,3.89,-4.36,
926,1661559999551,-1.1393,-0.1438,-0.4268,-24.37,-0.68,-5.1,
927,1661559999552,-1.2594,-0.0212,0.1015,-30.49,6.6,-8.29,
928,1661559999552,-1.2452,0.2244,0.5102,-32.47,10.07,-8.1,
929,1661559999554,-1.1066,-0.1404,-0.1133,-31.46,3.48,-5.46,
930,1661559999554,-1.0943,0.2171,-0.0117,-30.67,5.25,-2.55,
931,1661559999554,-1.1412,-0.1057,0.3574,-26.67,6.27,-1.54,
932,1661559999554,-1.0489,0.0701,0.4375,-28.76,14.13,-7.28,
933,1661559999555,-0.9684,-0.0608,-0.2139,-28.56,7.2,-1.82,
934,1661559999555,-0.8443,-0.1946,-0.1372,-32.07,7.11,-1.54,
935,1661559999555,-0.9733,0.114,0.2593,-34.76,7.95,-2.36,
936,1661559999556,-1.0973,0.0105,0.3681,-31.77,1.02,0.02,
937,1661559999556,-0.8175,-0.258,-0.4155,-26.17,-10.15,3.75,
938,1661559999557,-0.9132,0.115,0.2334,-22.67,-5.66,-0.53,
939,1661559999557,-0.8312,-0.0608,0.8984,-23.77,7.27,5.02,
940,1661559999558,-0.8907,0.0794,-0.2632,-31.57,-4.64,3.94,
941,1661559999558,-0.7384,0.0027,0.0678,-31.37,6.85,6.49,
942,1661559999559,-0.8614,0.0174,0.7236,-26.98,17.85,6.94,
943,1661559999559,-0.859,0.3509,0.6079,-21.97,12.19,2.66,
944,1661559999559,-0.6627,0.0047,-0.5562,-19.07,5.75,9.03,
945,1661559999560,-0.8282,0.325,0.23,-21.07,19.21,4.94,
946,1661559999560,-0.7882,0.5247,0.1889,-23.97,14.63,2.38,
947,1661559999561,-0.7311,0.1702,-0.3355,-21.77,6.1,1.92,
948,1661559999561,-0.7364,0.3714,-0.4492,-20.08,11.09,2.84,
949,1661559999562,-0.7359,0.4578,0.0068,-12.77,3.64,8.04,
950,1661559999562,-0.8102,0.4207,0.0522,-9.87,4.57,-0.81,
951,1661559999563,-0.6984,0.4705,-0.2764,-6.77,-0.25,-0.81,
952,1661559999563,-0.754,0.0813,-0.2554,-8.48,-1.94,2.01,
953,1661559999564,-0.7989,0.3699,0.0678,-8.97,4.24,2.93,
954,1661559999564,-0.8575,0.3474,0.2261,-5.48,-0.08,4.94,
955,1661559999565,-0.8526,-0.1169,-0.2554,-4.38,-4.14,10.04,
956,1661559999565,-0.8385,0.344,0.2285,-4.61,-4.41,5.66,
957,1661559999566,-0.9386,-0.0534,0.4087,-6.58,-2.28,4.85,
958,1661559999566,-0.8151,-0.1306,0.1284,-4.88,-12.01,4.49,
959,1661559999566,-0.9357,0.0261,-0.1314,-6.59,-13.95,2.93,
960,1661559999567,-0.9772,-0.1726,0.4175,-7.98,-0.0,8.5,
961,1661559999567,-0.9503,0.1043,0.2319,-8.07,-4.31,1.74,
962,1661559999568,-0.8033,-0.174,-0.1992,-8.18,-8.46,10.04,
963,1661559999568,-1.0978,-0.0476,0.2402,-8.97,-3.13,5.11,
964,1661559999569,-1.1632,0.1858,0.1357,-3.39,-10.32,4.49,
965,1661559999569,-1.0123,-0.2805,-0.2461,-5.68,-4.14,7.58,
966,1661559999570,-1.2569,0.0613,0.5957,-10.68,9.23,-2.27,
967,1661559999570,-1.0192,0.2,-0.0596,-12.3,-7.36,4.39,
968,1661559999571,-1.0353,-0.3498,-0.4224,-12.18,-7.95,3.57,
969,1661559999571,-1.128,0.3831,0.5547,-10.18,8.63,-0.17,
970,1661559999571,-1.0841,-0.2663,-0.0117,-10.38,-3.97,3.57,
971,1661559999573,-1.2374,0.1326,0.1299,-13.78,1.95,-2.18,
972,1661559999573,-1.2584,0.2678,0.4443,-13.59,9.23,-3.91,
973,1661559999573,-1.1568,-0.3899,0.1543,-16.37,1.78,0.11,
974,1661559999573,-1.0904,0.2532,-0.0191,-16.97,3.31,-6.47,
975,1661559999574,-1.1061,-0.3137,0.1474,-13.27,3.72,-2.46,
976,1661559999574,-1.1905,-0.3718,0.1294,-16.07,6.68,-5.19,
977,1661559999575,-1.2916,0.0042,0.2163,-22.87,-2.03,-5.55,
978,1661559999575,-1.3746,-0.3899,0.2759,-25.18,-10.06,-3.72,
979,1661559999576,-1.173,-0.3698,0.1719,-32.16,-6.76,-4.55,
980,1661559999576,-1.2823,-0.0427,0.3203,-27.97,10.33,-0.72,
981,1661559999576,-1.0563,-0.5959,0.206,-26.98,5.92,-1.72,
982,1661559999577,-1.2457,-0.0149,0.3125,-26.98,2.96,-5.92,
983,1661559999578,-1.235,-0.3401,0.8139,-29.97,7.95,-4.0,
984,1661559999578,-1.3326,-0.1662,0.0708,-31.26,3.81,-7.19,
985,1661559999579,-1.0787,-0.1096,-0.1597,-30.76,9.47,-4.0,
986,1661559999579,-1.2584,-0.1946,0.5791,-33.66,22.08,-2.64,
987,1661559999579,-1.0245,0.3758,-0.0547,-36.47,10.91,-3.45,
988,1661559999580,-1.0299,-0.0696,-0.482,-25.77,-1.94,1.1,
989,1661559999580,-1.1568,-0.1814,0.144,-27.77,11.59,-3.63,
990,1661559999581,-1.1691,0.4817,0.5053,-30.76,4.24,-6.01,
991,1661559999581,-0.9068,-0.1228,-0.4009,-37.28,0.35,-2.81,
992,1661559999582,-0.9186,0.3289,-0.0684,-33.97,4.24,-4.73,
993,1661559999582,-0.9151,0.1858,0.5893,-28.56,12.02,2.29,
994,1661559999583,-0.9972,0.3343,0.1567,-21.77,8.37,-2.46,
995,1661559999583,-0.819,0.1565,-0.1861,-22.96,3.05,1.19,
996,1661559999584,-0.9689,-0.07,0.1435,-27.18,2.96,-2.55,
997,1661559999584,-0.9108,0.3611,0.7192,-29.77,14.72,-3.54,
998,1661559999585,-0.7784,0.114,-0.2652,-24.28,5.41,0.93,
999,1661559999585,-0.6178,-0.1223,-0.3941,-21.16,11.33,2.29,
1000,1661559999585,-0.942,0.4124,0.7949,-26.17,11.0,4.03,
1001,1661559999586,-0.8517,-0.1316,0.1455,-22.28,1.45,1.74,
1002,1661559999586,-0.6876,-0.2068,-0.564,-15.87,-21.31,4.3,
1003,1661559999587,-0.8116,0.159,-0.0708,-19.59,5.84,3.48,
1004,1661559999587,-0.7623,0.1204,0.977,-25.19,17.25,8.41,
1005,1661559999588,-0.7965,0.1717,-0.5371,-21.77,-0.42,8.04,
1006,1661559999589,-0.5792,-0.011,-0.4263,-13.78,3.89,8.32,
1007,1661559999589,-0.9684,0.3216,0.8667,-10.38,7.11,7.03,
1008,1661559999589,-0.6969,0.3162,-0.3042,-8.48,-1.94,7.77,
1009,1661559999590,-0.6183,-0.1008,-0.9214,-9.38,-4.73,8.32,
1010,1661559999590,-0.8219,0.3206,-0.0835,-14.97,12.69,1.92,
1011,1661559999590,-0.8566,0.4969,0.3393,-7.08,3.22,5.75,
1012,1661559999591,-0.6598,0.0677,-0.4712,-5.58,-5.16,4.39,
1013,1661559999591,-0.7252,0.4641,-0.1953,-5.28,-12.78,3.39,
1014,1661559999592,-0.9205,0.1975,0.3681,-4.09,-9.46,5.84,
1015,1661559999592,-1.069,0.2425,0.248,-5.39,-7.69,4.03,
1016,1661559999593,-0.8976,0.3255,-0.0303,-5.87,-0.93,2.93,
1017,1661559999593,-0.982,0.0359,0.1367,-5.98,-2.45,1.28,
1018,1661559999594,-0.9366,0.3714,0.416,-5.48,2.29,-2.27,
1019,1661559999594,-1.0065,0.1687,0.2558,-2.58,-5.24,3.66,
1020,1661559999595,-0.8014,-0.1897,-0.147,-1.48,-3.8,2.38,
1021,1661559999595,-1.0016,0.198,0.0688,-3.48,-5.66,0.11,
1022,1661559999595,-1.1988,-0.2956,0.2353,-9.58,-3.3,-2.18,
1023,1661559999596,-1.0821,-0.2444,-0.1172,-11.87,-12.42,-0.17,
1024,1661559999596,-1.1691,-0.0608,0.2373,-10.38,-6.5,-1.08,
1025,1661559999597,-0.9562,-0.3884,0.1318,-11.28,-13.19,4.3,
1026,1661559999597,-1.0441,-0.1819,0.1533,-9.87,-6.09,1.65,
1027,1661559999598,-1.0597,-0.1491,0.4585,-9.58,4.31,2.38,
1028,1661559999598,-1.3546,-0.195,0.1538,-13.87,-6.67,-2.46,
1029,1661559999599,-1.1617,-0.2868,-0.3384,-16.37,-9.82,1.83,
1030,1661559999599,-1.3009,-0.1994,0.7417,-21.25,14.55,-0.81,
1031,1661559999600,-1.1481,0.1306,0.2431,-17.67,7.37,2.2,
1032,1661559999600,-0.9928,-0.3083,-0.855,-12.59,-9.98,1.19,
1033,1661559999601,-1.2159,0.0296,0.8144,-17.87,4.65,1.56,
1034,1661559999601,-1.4078,0.2678,1.0503,-19.67,-3.13,-5.0,
1035,1661559999602,-1.192,-0.2038,-0.3384,-28.08,-6.93,-0.53,
1036,1661559999602,-1.2423,-0.0652,0.1562,-29.27,13.62,-2.09,
1037,1661559999603,-1.1827,0.032,0.7109,-29.46,9.4,-2.09,
1038,1661559999603,-1.2364,0.0398,-0.0137,-22.96,6.27,-8.01,
1039,1661559999604,-1.2384,-0.0969,0.2573,-22.57,13.29,-6.91,
1040,1661559999604,-1.297,-0.2624,0.2661,-23.38,8.21,-9.2,
1041,1661559999604,-1.1544,0.1253,0.0957,-30.67,3.81,-7.74,
1042,1661559999605,-1.1847,-0.052,0.1357,-33.46,5.17,-6.01,
1043,1661559999605,-1.0353,-0.4372,-0.0034,-35.17,11.0,-2.9,
1044,1661559999606,-1.1827,0.0193,-0.0801,-32.87,-1.77,1.56,
1045,1661559999606,-1.1505,-0.2405,0.393,-31.46,-6.09,3.48,
1046,1661559999607,-1.1749,-0.2439,0.1875,-29.3,-14.99,3.75,
1047,1661559999607,-1.1515,-0.1003,0.0395,-32.49,-1.27,6.58,
1048,1661559999608,-1.0382,-0.1262,0.519,-34.36,14.05,6.12,
1049,1661559999608,-0.9889,0.0769,0.3457,-37.87,17.18,3.75,
1050,1661559999609,-0.9054,0.0169,0.0395,-32.07,1.35,4.3,
1051,1661559999609,-1.1012,-0.0022,0.0669,-29.46,3.55,5.84,
1052,1661559999609,-0.9186,0.324,0.4809,-27.97,8.54,2.2,
1053,1661559999610,-0.9332,-0.0515,-0.0928,-25.66,7.53,7.49,
1054,1661559999610,-0.8067,0.3343,-0.2813,-30.27,9.47,4.67,
1055,1661559999611,-0.8673,0.4636,-0.0376,-32.97,6.34,4.03,
1056,1661559999611,-0.8614,0.1702,0.2915,-30.07,3.89,1.92,
1057,1661559999612,-0.859,0.4129,-0.1572,-22.96,-3.04,2.38,
1058,1661559999612,-0.7657,0.2874,0.0273,-18.68,7.2,4.94,
1059,1661559999613,-0.9132,0.4778,0.625,-17.18,21.48,0.56,
1060,1661559999613,-0.7731,0.2395,-0.2129,-19.47,12.43,2.01,
1061,1661559999614,-0.8053,0.0598,-0.3711,-21.67,11.09,1.28,
1062,1661559999614,-0.715,0.4226,0.3139,-20.87,18.61,0.56,
1063,1661559999614,-0.7491,0.2112,-0.043,-13.87,9.98,4.67,
1064,1661559999615,-0.5641,0.0803,-0.5293,-7.98,7.95,1.83,
1065,1661559999615,-0.8116,0.2527,0.0635,-8.68,4.57,-0.81,
1066,1661559999616,-0.8531,0.0808,0.1142,-10.19,-4.31,0.2,
1067,1661559999616,-0.7179,-0.0447,-0.3257,-14.05,-16.67,-0.35,
1068,1661559999617,-0.9098,0.0574,0.0053,-12.48,-3.04,7.13,
1069,1661559999617,-0.6817,-0.0608,0.3345,-9.69,-0.93,3.66,
1070,1661559999618,-0.9313,0.1609,0.1225,-8.97,-6.0,4.49,
1071,1661559999618,-0.8341,-0.0715,0.2744,-7.98,-3.54,4.85,
1072,1661559999619,-1.1481,0.0569,-0.0117,-9.28,-14.8,3.57,
1073,1661559999619,-0.9293,0.2317,0.0254,-9.49,1.19,1.83,
1074,1661559999620,-0.9337,0.0633,0.4746,-8.3,10.33,6.49,
1075,1661559999620,-0.858,0.2361,0.0796,-9.58,9.4,5.75,
1076,1661559999620,-0.7609,0.1394,-0.7276,-8.97,-5.33,3.85,
1077,1661559999621,-0.8478,-0.0442,-0.4678,-6.0,-3.89,7.03,
1078,1661559999621,-1.0563,0.3802,0.4365,-2.27,-9.72,1.47,
1079,1661559999623,-1.0699,0.0071,-0.2041,-4.97,-23.85,7.31,
1080,1661559999623,-1.1617,0.0667,-0.0396,-9.08,-5.66,3.75,
1081,1661559999623,-1.1041,0.1507,0.518,-12.89,5.5,-1.54,
1082,1661559999623,-1.0221,-0.1433,0.1094,-11.38,0.16,2.84,
1083,1661559999624,-0.9942,-0.0061,-0.0713,-4.78,-3.71,-0.26,
1084,1661559999624,-1.0963,-0.133,0.1162,-5.8,0.26,5.48,
1085,1661559999624,-1.1832,-0.2702,0.4721,-11.38,7.61,2.29,
1086,1661559999626,-1.1793,-0.0354,0.0937,-19.87,2.71,2.01,
1087,1661559999626,-1.1534,-0.5012,-0.291,-23.09,-3.97,1.1,
1088,1661559999626,-1.2257,-0.1345,0.1816,-17.38,-7.19,-1.27,
1089,1661559999626,-1.2716,-0.2507,0.3945,-14.68,-2.37,3.66,
1090,1661559999627,-1.1593,-0.4944,0.0913,-14.97,-11.49,3.39,
1091,1661559999627,-1.3175,-0.2644,-0.0747,-23.86,-8.88,0.47,
1092,1661559999628,-1.2936,-0.26,0.9428,-28.98,1.69,-0.08,
1093,1661559999628,-1.4112,-0.2546,0.5727,-28.47,1.45,1.56,
1094,1661559999629,-1.0953,-0.1902,-0.4297,-28.37,0.93,-3.63,
1095,1661559999629,-1.275,-0.2448,0.6162,-30.97,19.12,5.39,
1096,1661559999630,-1.3004,0.3411,1.0088,-26.29,22.5,-0.44,
1097,1661559999630,-1.1295,-0.2971,-0.5733,-20.39,-0.58,4.3,
1098,1661559999631,-1.1124,0.0037,-0.0518,-26.98,4.99,-5.19,
1099,1661559999631,-1.1993,0.2835,0.5161,-34.67,15.73,-2.36,
1100,1661559999632,-1.1061,-0.0339,0.164,-37.26,9.81,-5.19,
1101,1661559999632,-1.0792,0.0803,-0.4102,-35.17,-1.94,-5.37,
1102,1661559999633,-1.0939,0.1345,0.2807,-28.58,-1.77,-7.83,
1103,1661559999633,-1.2013,0.136,0.5615,-23.77,10.74,-8.65,
1104,1661559999634,-1.0362,0.0564,-0.0889,-26.37,13.87,-10.83,
1105,1661559999634,-1.0641,-0.2204,-0.0591,-36.56,10.4,-0.53,
1106,1661559999634,-1.0382,0.3133,0.4731,-39.17,5.92,-4.46,
1107,1661559999635,-1.0528,-0.0788,0.0971,-30.87,4.15,-0.26,
1108,1661559999635,-0.8756,-0.2434,-0.0938,-26.08,1.86,-1.54,
1109,1661559999636,-1.1183,0.094,0.1177,-27.18,-1.27,0.29,
1110,1661559999636,-1.0001,-0.0451,0.5444,-30.27,-0.25,4.12,
1111,1661559999637,-1.0123,-0.0793,0.1196,-32.07,-9.98,4.03,
1112,1661559999637,-0.8644,0.052,0.0762,-29.46,4.74,4.03,
1113,1661559999638,-0.8697,0.0135,0.3999,-29.77,13.2,6.3,
1114,1661559999638,-0.9903,0.1472,0.3843,-27.47,15.15,7.31,
1115,1661559999638,-0.7735,0.1052,0.1011,-22.89,8.97,8.5,
1116,1661559999639,-0.9728,0.0281,-0.0039,-24.28,8.8,6.21,
1117,1661559999639,-0.7921,0.468,0.0483,-25.57,10.23,0.75,
1118,1661559999640,-0.6871,0.1404,-0.1446,-22.87,14.72,2.47,
1119,1661559999641,-0.6329,0.4309,-0.3692,-19.07,13.12,0.66,
1120,1661559999641,-0.7521,0.4651,-0.3985,-16.97,5.41,3.66,
1121,1661559999641,-0.7882,0.221,-0.1074,-14.37,5.34,2.47,
1122,1661559999642,-0.8043,0.5462,0.04,-10.88,2.45,-1.45,
1123,1661559999642,-0.6847,0.1912,-0.3867,-12.76,-7.1,3.2,
1124,1661559999643,-0.8336,0.4549,0.1416,-13.67,4.41,-2.09,
1125,1661559999643,-0.7682,0.2942,0.1899,-8.68,2.88,2.38,
1126,1661559999644,-0.8487,0.0686,-0.0777,-5.46,0.09,3.66,
1127,1661559999644,-0.7648,0.2586,0.0625,-3.3,5.75,4.49,
1128,1661559999645,-0.9191,0.052,0.2514,-4.97,-1.77,5.48,
1129,1661559999645,-0.7721,0.0427,0.0449,-10.28,-6.76,7.03,
1130,1661559999645,-0.8878,0.2044,0.0156,-11.47,-13.45,7.95,
1131,1661559999646,-1.0201,-0.1076,0.1006,-10.48,-5.83,4.21,
1132,1661559999646,-0.9625,-0.1169,0.0239,-8.28,-7.43,7.68,
1133,1661559999647,-0.8121,0.0589,0.1103,-5.48,-9.05,7.22,
1134,1661559999647,-0.8175,-0.2156,0.1919,-3.78,-11.33,11.6,
1135,1661559999648,-1.047,-0.0173,0.019,-9.98,-13.11,9.4,
1136,1661559999648,-0.9718,-0.2883,-0.0957,-10.68,-16.91,11.23,
1137,1661559999649,-1.2677,0.0296,0.5278,-18.17,1.69,3.66,
1138,1661559999649,-1.024,0.1951,0.4316,-15.67,-4.4,6.94,
1139,1661559999649,-0.9708,-0.3332,-0.2412,-8.28,-0.68,4.58,
1140,1661559999650,-0.9938,0.1931,0.3579,-6.38,12.94,-0.72,
1141,1661559999650,-1.0621,0.0276,-0.0181,-5.78,1.19,7.49,
1142,1661559999651,-1.1842,-0.2302,-0.1939,-12.57,-7.36,4.67,
1143,1661559999651,-1.3024,0.2561,0.4619,-19.61,-0.69,-2.55,
1144,1661559999652,-1.1339,-0.1028,0.3374,-16.08,0.42,-1.17,
1145,1661559999652,-1.2003,-0.0984,-0.1558,-15.58,1.52,-2.55,
1146,1661559999653,-1.045,0.1262,0.2012,-13.87,4.99,-1.82,
1147,1661559999653,-1.2423,-0.3767,0.3667,-14.97,3.12,3.2,
1148,1661559999654,-1.3014,0.0266,0.1328,-19.07,-1.44,-4.64,
1149,1661559999654,-1.3668,-0.5095,0.3535,-27.47,0.52,-4.64,
1150,1661559999655,-1.2506,-0.0373,0.5307,-32.47,3.89,-7.64,
1151,1661559999655,-1.2482,0.1062,0.353,-30.27,4.15,-4.36,
1152,1661559999656,-1.1207,-0.4792,-0.0713,-24.87,4.74,2.84,
1153,1661559999656,-1.2838,-0.1365,0.2002,-25.97,7.53,0.02,
1154,1661559999656,-1.3634,-0.1594,0.6323,-29.07,12.1,1.47,
1155,1661559999657,-1.3448,-0.3747,0.0493,-33.37,-1.1,-4.09,
1156,1661559999657,-1.0572,0.0095,0.0757,-33.97,2.12,-4.09,
1157,1661559999658,-1.1402,-0.3166,0.497,-34.87,4.99,-2.09,
1158,1661559999659,-1.2872,-0.1487,0.416,-34.87,16.25,-1.08,
1159,1661559999659,-1.0631,0.159,-0.2354,-27.37,4.57,1.19,
1160,1661559999659,-1.2223,-0.3161,0.2407,-30.87,12.43,1.74,
1161,1661559999660,-1.1905,0.3972,0.7241,-32.56,9.81,-6.19,
1162,1661559999660,-0.9239,-0.1286,-0.3032,-36.38,4.91,-1.27,
1163,1661559999661,-0.8024,0.1775,-0.2803,-36.97,7.78,-2.99,
1164,1661559999661,-0.9869,0.2976,0.539,-37.76,13.7,0.29,
1165,1661559999662,-1.0094,0.0677,0.5263,-30.29,4.48,1.19,
1166,1661559999662,-0.9523,0.2952,-0.1748,-27.57,-2.54,-4.09,
1167,1661559999662,-0.8658,0.2698,0.0512,-26.47,3.81,-3.54,
1168,1661559999663,-1.0055,0.2346,0.772,-31.77,16.49,-4.64,
1169,1661559999663,-0.6949,0.281,-0.1485,-30.17,6.01,-3.63,
1170,1661559999664,-0.7364,-0.1164,-0.378,-28.56,6.44,1.47,
1171,1661559999664,-0.9547,0.409,0.6343,-24.37,16.49,0.56,
1172,1661559999665,-0.9698,0.3167,0.5625,-19.77,16.25,0.11,
1173,1661559999665,-0.6437,-0.1262,-0.3042,-20.1,5.92,2.47,
1174,1661559999667,-0.8273,0.219,-0.189,-25.86,-0.51,1.02,
1175,1661559999667,-0.7941,0.0271,0.4428,-23.77,10.49,1.83,
1176,1661559999667,-0.8302,0.0432,-0.2276,-19.87,-0.51,0.84,
1177,1661559999667,-0.6236,0.1223,-0.21,-15.27,2.62,3.2,
1178,1661559999668,-0.6109,0.0823,0.2012,-13.87,6.34,7.49,
1179,1661559999668,-0.8258,0.2263,0.3828,-15.18,9.64,4.3,
1180,1661559999668,-0.6051,0.0271,-0.4058,-15.09,-2.03,11.32,
1181,1661559999669,-0.859,0.1199,-0.0928,-15.18,3.48,2.47,
1182,1661559999670,-0.8541,0.4217,0.2851,-10.38,4.57,7.4,
1183,1661559999670,-0.7745,-0.0578,-0.187,-5.17,4.15,9.49,
1184,1661559999670,-0.6525,0.1839,-0.2549,-6.96,4.74,6.49,
1185,1661559999671,-0.7076,0.3933,-0.1402,-8.28,-3.64,6.67,
1186,1661559999671,-0.8829,0.0994,-0.0293,-9.58,-9.82,6.76,
1187,1661559999672,-0.8995,0.3689,-0.0181,-9.67,-10.82,3.2,
1188,1661559999672,-0.9386,0.1868,0.1391,-9.87,-6.85,3.2,
1189,1661559999673,-1.0133,0.2644,0.2226,-5.39,1.19,2.2,
1190,1661559999673,-0.899,0.2898,0.1054,-1.88,-0.17,0.29,
1191,1661559999673,-0.8907,-0.0764,0.0849,-1.98,-6.17,3.57,
1192,1661559999674,-0.942,0.2859,0.2925,-3.28,-3.04,-1.45,
1193,1661559999674,-1.0865,-0.2937,-0.2075,-3.98,-8.03,0.38,
1194,1661559999675,-1.0626,-0.3718,-0.1992,-11.28,-0.51,1.37,
1195,1661559999675,-1.0919,0.138,0.4673,-16.08,-0.68,1.47,
1196,1661559999676,-1.1925,-0.2478,0.0928,-8.28,-7.86,3.75,
1197,1661559999676,-0.9005,-0.4118,-0.4497,-7.58,-17.51,-2.46,
1198,1661559999677,-1.0748,-0.0456,0.6074,-11.98,-1.44,4.39,
1199,1661559999677,-1.107,-0.2224,0.4653,-14.77,4.74,5.2,
1200,1661559999678,-1.1285,-0.4001,-0.7095,-14.48,-10.82,4.76,
1201,1661559999678,-1.0895,-0.2575,0.7461,-22.87,-5.83,1.28,
1202,1661559999678,-1.5289,0.0266,1.2685,-20.77,0.76,0.56,
1203,1661559999679,-1.1827,-0.1365,-0.2632,-10.48,-7.53,6.67,
1204,1661559999679,-1.1236,-0.5466,-0.4605,-13.58,8.54,3.2,
1205,1661559999680,-1.2726,0.3469,1.2539,-25.18,20.64,-0.72,
1206,1661559999680,-1.2013,-0.1404,-0.0864,-24.76,-9.63,-1.36,
1207,1661559999681,-1.1603,-0.2868,-0.3062,-23.77,3.05,3.11,
1208,1661559999681,-1.2755,0.1077,0.6758,-29.46,10.91,0.47,
1209,1661559999682,-1.3009,0.0613,0.2134,-32.87,4.06,1.92,
1210,1661559999682,-1.2584,0.1399,0.0947,-27.18,3.12,-3.81,
1211,1661559999683,-1.194,-0.1667,0.2837,-22.78,9.47,-0.17,
1212,1661559999683,-1.3072,-0.008,0.3095,-24.37,8.04,-4.36,
1213,1661559999684,-1.1588,0.0657,0.2202,-31.57,17.35,-3.91,
1214,1661559999684,-1.1378,-0.4201,0.1855,-36.67,9.81,-2.81,
1215,1661559999685,-1.1354,0.138,-0.0142,-34.67,1.19,-4.18,
1216,1661559999685,-1.1324,0.1468,0.0014,-26.85,7.78,-1.08,
1217,1661559999686,-1.0167,-0.2883,0.2876,-26.56,14.72,1.83,
1218,1661559999686,-1.1017,-0.0759,0.0957,-32.87,4.99,-1.63,
1219,1661559999686,-1.0841,-0.1721,-0.041,-35.87,0.93,-1.36,
1220,1661559999687,-1.1075,-0.1155,0.414,-32.56,-0.17,1.47,
1221,1661559999687,-1.0309,-0.0193,0.4887,-31.37,8.04,4.49,
1222,1661559999688,-0.9557,-0.0168,-0.0142,-30.36,2.38,4.76,
1223,1661559999688,-1.0577,0.1204,0.0185,-33.07,8.37,3.2,
1224,1661559999689,-0.9283,0.0554,0.4902,-29.66,14.8,4.21,
1225,1661559999689,-1.1422,-0.05,0.334,-27.66,12.02,1.65,
1226,1661559999690,-0.8248,0.4378,-0.169,-28.09,9.47,1.65,
1227,1661559999690,-0.8121,0.0955,0.0703,-28.67,14.46,1.02,
1228,1661559999691,-0.8307,0.3811,0.1875,-28.27,13.03,0.93,
1229,1661559999691,-0.8849,0.4168,-0.1201,-23.27,-1.77,2.93,
1230,1661559999691,-0.7799,0.2493,-0.1958,-22.77,5.41,1.1,
1231,1661559999692,-0.8268,0.532,0.2475,-21.38,11.59,0.29,
1232,1661559999692,-0.7379,0.1956,-0.1006,-22.08,8.88,-0.53,
1233,1661559999693,-0.7672,0.4641,-0.0025,-19.07,15.48,-4.46,
1234,1661559999693,-0.6173,0.2947,-0.0625,-17.38,8.37,1.37,
1235,1661559999694,-0.6671,0.1472,-0.2012,-8.38,9.81,0.93,
1236,1661559999694,-0.6847,0.3504,-0.0918,-10.07,13.36,0.93,
1237,1661559999695,-0.7794,0.1009,-0.1509,-8.57,0.76,1.1,
1238,1661559999695,-0.6398,0.0681,-0.2197,-14.97,-5.33,3.48,
1239,1661559999696,-0.9005,0.1844,0.0532,-14.88,-15.31,3.02,
1240,1661559999696,-0.7652,-0.1794,0.0317,-7.78,-9.22,4.03,
1241,1661559999697,-0.8087,0.1038,0.084,-7.78,-15.05,4.03,
1242,1661559999697,-0.86,0.1204,0.3447,-9.0,3.46,9.13,
1243,1661559999698,-0.7682,-0.0232,0.4243,-12.18,6.51,4.49,
1244,1661559999698,-0.9234,0.0437,-0.3008,-13.58,-7.53,4.94,
1245,1661559999698,-0.8204,-0.0539,0.3545,-11.47,0.16,2.75,
1246,1661559999699,-1.0607,0.2229,0.437,-5.58,0.85,1.47,
1247,1661559999699,-0.7999,0.2405,-0.0864,-1.88,-2.7,5.84,
1248,1661559999700,-0.8072,-0.1643,-0.565,-5.58,-9.63,10.22,
1249,1661559999700,-0.9889,0.3128,0.2012,-8.07,3.38,1.74,
1250,1661559999700,-1.0021,0.0452,-0.1489,-7.28,-11.92,5.94,
1251,1661559999701,-1.0602,-0.0022,-0.2119,-6.68,-11.92,5.39,
1252,1661559999702,-1.128,0.1795,0.3535,-9.38,-9.82,4.12,
1253,1661559999702,-1.1134,-0.073,0.3755,-10.77,-3.04,5.3,
1254,1661559999703,-1.0992,0.1135,0.1743,-9.08,-4.4,3.2,
1255,1661559999703,-1.0006,-0.0129,-0.0977,-8.18,-9.39,0.29,
1256,1661559999703,-1.2447,-0.1775,0.4258,-8.97,3.12,1.83,
1257,1661559999704,-1.1857,0.0633,0.4282,-11.67,14.05,1.83,
1258,1661559999704,-1.1739,-0.2707,-0.0811,-16.48,3.89,0.47,
1259,1661559999706,-1.0817,-0.3723,-0.2984,-19.87,-0.51,-2.0,
1260,1661559999706,-1.295,0.0349,0.5093,-17.97,-7.02,-5.37,
1261,1661559999706,-1.215,-0.4992,-0.0152,-15.38,-12.42,1.56,
1262,1661559999706,-1.2965,-0.2546,-0.166,-18.57,-7.6,-3.17,
1263,1661559999707,-1.4606,-0.3235,0.8076,-29.57,-2.45,-1.72,
1264,1661559999707,-1.3048,-0.3323,0.4658,-33.17,-10.99,-1.91,
1265,1661559999708,-1.2013,-0.1311,0.1294,-26.98,4.99,1.28,
1266,1661559999708,-1.256,-0.2912,0.4448,-24.98,12.6,2.01,
1267,1661559999709,-1.1905,0.0388,0.4951,-29.66,17.94,-0.35,
1268,1661559999709,-1.297,0.0384,0.3789,-29.66,15.32,2.56,
1269,1661559999710,-1.3673,-0.2224,0.2358,-28.47,9.4,-0.17,
1270,1661559999710,-1.1066,0.179,-0.0757,-28.87,5.5,-1.17,
1271,1661559999710,-1.0494,-0.0549,0.1533,-32.56,19.71,1.37,
1272,1661559999711,-1.0851,0.1946,0.0884,-34.76,15.99,-3.26,
1273,1661559999711,-1.0568,0.0286,-0.3389,-33.17,-3.38,1.65,
1274,1661559999712,-1.215,0.117,0.5561,-31.46,1.61,0.11,
1275,1661559999712,-1.1617,0.3059,0.6924,-27.07,8.21,-3.72,
1276,1661559999713,-0.9278,0.0066,-0.086,-29.77,9.73,0.29,
1277,1661559999713,-0.9239,0.0891,0.1406,-33.45,23.01,-3.54,
1278,1661559999714,-0.964,0.1956,0.4834,-32.97,17.35,-2.46,
1279,1661559999714,-0.9928,-0.092,-0.0205,-31.77,7.27,-2.46,
1280,1661559999715,-1.0753,0.1492,0.1806,-27.01,5.32,-1.36,
1281,1661559999715,-1.0289,-0.0281,0.2661,-29.17,10.74,1.83,
1282,1661559999716,-0.7345,-0.0393,0.0859,-31.66,8.54,2.93,
1283,1661559999716,-0.8614,0.0867,-0.0484,-31.46,3.05,1.47,
1284,1661559999717,-0.7882,-0.1223,0.1103,-29.57,-2.37,1.28,
1285,1661559999717,-0.9464,0.0999,0.1147,-25.18,-4.31,2.01,
1286,1661559999717,-0.8282,0.1052,0.3471,-23.21,10.81,4.49,
1287,1661559999718,-0.8961,0.0003,0.1289,-25.77,19.04,3.94,
1288,1661559999718,-0.8234,0.1482,-0.1192,-28.37,12.86,2.75,
1289,1661559999719,-0.6813,0.1189,-0.0943,-25.97,12.19,4.21,
1290,1661559999719,-0.8912,0.2556,0.3965,-17.97,15.48,1.92,
1291,1661559999720,-0.6471,0.3308,-0.3677,-13.38,4.74,4.39,
1292,1661559999720,-0.735,0.1253,-0.2979,-17.38,6.34,1.56,
1293,1661559999721,-0.7848,0.6311,0.2661,-16.57,18.69,1.1,
1294,1661559999721,-0.6896,0.4236,-0.1323,-15.85,3.05,2.01,
1295,1661559999721,-0.6778,0.1345,-0.626,-15.29,-6.09,2.01,
1296,1661559999722,-0.796,0.5569,0.1509,-12.88,-6.0,2.56,
1297,1661559999722,-0.7965,0.2908,0.229,-9.38,-6.85,3.66,
1298,1661559999723,-0.7467,0.3968,-0.1773,-5.98,-1.77,2.56,
1299,1661559999723,-0.7467,0.2981,-0.1885,-1.59,-3.13,7.22,
1300,1661559999724,-0.8439,-0.0041,0.2265,-8.77,3.98,8.41,
1301,1661559999724,-0.8024,0.3509,0.2353,-11.09,-0.25,3.39,
1302,1661559999725,-0.923,-0.1672,-0.3242,-8.48,-12.59,7.13,
1303,1661559999725,-0.9435,0.0076,0.0913,-7.98,-8.53,5.94,
1304,1661559999726,-1.0597,0.0969,0.4585,-4.7,0.09,2.66,
1305,1661559999726,-0.8951,-0.2112,0.1181,-2.49,-10.23,8.5,
1306,1661559999727,-1.0138,-0.2326,-0.4107,-9.28,-20.89,10.04,
1307,1661559999727,-1.1222,-0.0505,0.4829,-12.77,-3.3,9.13,
1308,1661559999728,-1.1217,-0.2888,0.2514,-13.49,-14.21,9.13,
1309,1661559999728,-1.0851,-0.0603,-0.1382,-11.47,-9.56,5.94,
1310,1661559999728,-1.0382,-0.218,0.2856,-9.87,-3.89,7.13,
1311,1661559999729,-1.0978,0.0818,0.4062,-8.77,3.64,5.57,
1312,1661559999729,-1.0587,0.1721,0.0322,-10.07,-3.8,6.39,
1313,1661559999730,-1.1232,-0.3254,-0.2549,-14.77,3.81,3.94,
1314,1661559999730,-1.0875,0.1975,0.2368,-16.68,2.03,-0.81,
1315,1661559999731,-1.1105,-0.1042,0.1186,-15.08,-1.87,-2.0,
1316,1661559999731,-1.2174,-0.1262,-0.0523,-12.79,-10.06,-1.63,
1317,1661559999732,-1.1686,0.0769,0.0083,-17.07,-10.23,-2.18,
1318,1661559999732,-1.3199,-0.136,0.4726,-20.96,2.88,-3.72,
1319,1661559999733,-1.3038,0.0843,0.3447,-20.48,9.4,-6.1,
1320,1661559999733,-1.1734,-0.1457,0.0776,-18.57,0.26,-5.46,
1321,1661559999733,-1.2926,-0.2678,0.3813,-23.38,5.67,-10.74,
1322,1661559999734,-1.296,0.1297,0.6074,-23.97,2.38,-4.91,
1323,1661559999735,-1.1959,-0.4636,-0.0957,-26.66,8.8,-2.73,
1324,1661559999735,-1.215,-0.0329,0.0757,-26.49,13.45,-2.46,
1325,1661559999736,-1.3531,-0.1604,0.4067,-29.27,13.87,-1.54,
1326,1661559999736,-1.2135,-0.3225,-0.086,-29.27,-2.03,-0.81,
1327,1661559999736,-1.2071,-0.0442,0.1435,-28.98,-5.83,-3.91,
1328,1661559999738,-1.0445,-0.3254,0.4067,-28.76,4.41,1.92,
1329,1661559999738,-1.3063,-0.1994,0.1528,-32.67,7.27,-0.35,
1330,1661559999738,-1.1075,0.0359,0.2182,-35.96,14.05,5.39,
1331,1661559999738,-1.2281,-0.2263,0.4165,-38.96,11.33,0.11,
1332,1661559999739,-1.1139,0.1756,0.289,-33.17,1.28,-1.27,
1333,1661559999739,-1.0211,-0.1296,0.1699,-27.77,7.11,-3.17,
1334,1661559999740,-0.9342,0.284,0.2065,-30.76,18.86,-1.36,
1335,1661559999740,-0.9327,0.2078,-0.0469,-31.97,13.79,1.83,
1336,1661559999741,-0.9957,-0.0349,-0.0293,-31.89,10.66,4.85,
1337,1661559999741,-0.9278,0.3255,0.1196,-30.07,0.68,1.74,
1338,1661559999742,-0.8502,0.3474,0.0376,-28.17,2.29,-1.72,
1339,1661559999742,-0.9274,0.2073,0.1177,-27.86,4.65,-0.44,
1340,1661559999742,-0.7408,0.3216,0.063,-29.77,2.79,-2.99,
1341,1661559999743,-0.9308,0.1848,0.1318,-25.86,4.65,1.1,
1342,1661559999743,-0.8956,0.3216,0.2427,-24.28,14.63,-2.36,
1343,1661559999744,-0.8336,0.1931,0.0102,-19.07,18.18,2.66,
1344,1661559999744,-0.7135,-0.0222,0.0029,-24.96,20.55,0.66,
1345,1661559999745,-0.7911,0.344,0.063,-27.47,7.44,0.29,
1346,1661559999745,-0.7394,-0.0041,-0.1441,-20.87,5.58,0.38,
1347,1661559999746,-0.7877,0.0838,-0.1738,-14.48,-0.34,3.48,
1348,1661559999746,-0.8439,0.1746,-0.0855,-18.77,3.12,3.3,
1349,1661559999746,-0.6158,0.0266,0.1225,-19.38,3.81,2.01,
1350,1661559999747,-0.7667,0.0501,-0.0274,-17.58,0.26,3.75,
1351,1661559999747,-0.5709,-0.0095,-0.0386,-14.28,1.09,0.56,
1352,1661559999748,-0.8732,0.0882,0.0605,-14.88,-4.9,3.2,
1353,1661559999748,-0.8234,0.1594,0.0312,-12.57,-5.07,4.12,
1354,1661559999749,-0.7814,-0.0212,0.0395,-9.98,0.42,6.85,
1355,1661559999749,-0.8175,0.1907,0.3393,-11.08,12.69,2.11,
1356,1661559999750,-0.6974,0.2786,0.0044,-10.88,8.97,9.4,
1357,1661559999750,-0.8707,0.0486,-0.5196,-10.57,-2.87,7.49,
1358,1661559999751,-0.8776,0.4168,-0.0767,-8.88,-6.76,5.3,
1359,1661559999751,-0.8404,0.3279,0.251,-7.19,-5.83,10.32,
1360,1661559999751,-0.9147,0.2132,0.0903,-6.58,-6.43,3.11,
1361,1661559999752,-0.8395,0.1726,-0.437,-9.58,-15.64,7.31,
1362,1661559999752,-0.9567,0.1746,0.2075,-6.88,-2.96,3.75,
1363,1661559999753,-0.9083,0.3469,0.3188,-7.08,0.35,1.83,
1364,1661559999753,-0.9537,0.0178,-0.2549,-0.98,-10.75,10.77,
1365,1661559999756,-1.0636,-0.2766,-0.1953,-8.18,1.28,3.02,
1366,1661559999756,-1.1471,0.2146,0.7143,-11.47,3.72,2.75,
1367,1661559999756,-1.1241,-0.2961,-0.0689,-9.48,-0.84,4.49,
1368,1661559999756,-0.9977,-0.2365,-0.3262,-10.38,-9.72,5.94,
1369,1661559999756,-1.1539,-0.0935,0.6284,-11.08,1.09,3.48,
1370,1661559999756,-1.0314,-0.2668,0.0361,-12.77,-2.54,3.85,
1371,1661559999757,-1.1578,-0.2746,-0.4214,-18.66,-16.24,1.1,
1372,1661559999759,-1.1461,-0.3894,0.0952,-16.48,-8.53,0.66,
1373,1661559999759,-1.4181,-0.1257,0.8535,-19.58,-6.09,-1.82,
1374,1661559999759,-1.2032,-0.1389,0.0361,-15.18,-6.43,-1.36,
1375,1661559999759,-1.2032,-0.4265,-0.127,-20.37,-0.51,4.12,
1376,1661559999759,-1.2198,0.1365,0.7304,-26.76,6.77,1.19,
1377,1661559999759,-1.2228,-0.1916,0.3911,-23.88,5.08,1.74,
1378,1661559999760,-1.1568,-0.1911,-0.1201,-21.87,8.97,2.75,
1379,1661559999760,-1.1734,0.0857,-0.1704,-22.67,1.09,-0.53,
1380,1661559999762,-1.253,-0.0315,0.3076,-33.58,4.48,1.28,
1381,1661559999762,-1.3072,0.1443,0.4048,-33.37,5.17,-6.19,
1382,1661559999762,-1.1539,-0.1306,-0.1616,-25.18,0.52,-1.17,
1383,1661559999762,-1.2853,0.1096,0.2007,-27.37,2.62,-4.91,
1384,1661559999763,-1.1866,0.2664,0.4975,-28.47,8.8,-3.91,
1385,1661559999763,-1.1188,-0.0656,0.332,-28.17,7.7,-6.91,
1386,1661559999763,-1.1451,-0.1413,0.0146,-29.66,19.45,-7.55,
1387,1661559999764,-1.1588,0.1468,0.2573,-30.36,12.26,-3.36,
1388,1661559999765,-1.0602,-0.2214,0.3139,-32.36,12.52,-2.36,
1389,1661559999765,-1.1129,0.0501,0.1489,-31.57,6.18,-8.1,
1390,1661559999766,-1.11,-0.2292,-0.0528,-29.97,3.72,-1.17,
1391,1661559999766,-1.1026,-0.0476,0.1474,-30.07,-1.01,-6.38,
1392,1661559999766,-1.1905,-0.0134,0.4887,-30.56,3.64,-0.72,
1393,1661559999767,-1.0314,-0.1736,0.0713,-34.45,-1.1,-1.17,
1394,1661559999767,-0.9938,0.0447,-0.0684,-34.76,0.76,0.47,
1395,1661559999768,-0.8585,0.0359,0.5454,-33.77,17.85,2.2,
1396,1661559999768,-1.149,0.0252,0.4687,-30.06,12.1,-1.36,
1397,1661559999769,-0.8468,0.242,-0.3677,-24.47,4.24,0.02,
1398,1661559999769,-0.9615,0.0252,0.4341,-25.27,15.22,1.83,
1399,1661559999770,-0.8331,0.5008,0.4917,-27.57,20.21,-0.26,
1400,1661559999770,-0.8199,0.4055,-0.2637,-21.67,8.13,2.93,
1401,1661559999771,-0.7272,0.0569,-0.7793,-24.76,11.93,-1.17,
1402,1661559999771,-0.7926,0.6306,0.331,-24.08,15.65,-4.36,
1403,1661559999772,-0.7521,0.1966,-0.1245,-20.86,4.82,0.75,
1404,1661559999772,-0.7672,0.4016,-0.4658,-17.18,2.03,-2.64,
1405,1661559999772,-0.7198,0.3762,0.1074,-14.3,6.68,-0.26,
1406,1661559999773,-0.7867,0.3303,0.2812,-13.67,15.82,-3.91,
1407,1661559999773,-0.6632,0.4011,-0.0274,-13.09,6.51,-4.55,
1408,1661559999774,-0.6456,-0.0588,-0.5689,-12.77,0.16,-3.72,
1409,1661559999774,-0.7208,0.3079,0.3017,-9.29,6.94,-3.91,
1410,1661559999775,-0.8795,0.2566,0.1636,-8.19,1.09,0.56,
1411,1661559999775,-0.7027,-0.2727,-0.4605,-5.66,-4.23,4.21,
1412,1661559999776,-0.8756,0.2205,0.2251,-14.39,-2.11,3.11,
1413,1661559999776,-0.9151,0.2029,0.4848,-14.17,-1.18,1.47,
1414,1661559999777,-0.756,-0.1223,0.0386,-6.77,-13.87,-0.08,
1415,1661559999777,-0.8863,-0.0422,-0.2847,-7.87,-11.92,1.74,
1416,1661559999777,-0.7604,-0.0544,0.5224,-10.28,0.59,2.2,
1417,1661559999778,-0.9869,0.1868,0.2475,-10.28,0.42,2.01,
1418,1661559999778,-0.7613,-0.2356,-0.4292,-7.98,1.78,2.84,
1419,1661559999779,-1.0856,0.0222,0.1225,-7.87,5.34,7.95,
1420,1661559999779,-0.9347,0.3377,0.2768,-10.18,4.41,1.74,
1421,1661559999780,-0.963,-0.1174,-0.0991,-9.58,-7.43,6.21,
1422,1661559999780,-1.027,0.0227,-0.1245,-7.29,-10.65,1.28,
1423,1661559999781,-1.0641,0.1223,-0.0689,-6.58,-18.1,-0.26,
1424,1661559999781,-1.1451,-0.07,0.2788,-6.18,0.35,5.94,
1425,1661559999781,-1.1066,0.1189,0.2988,-12.18,4.24,0.38,
1426,1661559999782,-0.9986,-0.0989,-0.2119,-15.78,-2.45,6.3,
1427,1661559999782,-1.2345,0.0506,0.395,-18.08,0.42,-2.36,
1428,1661559999783,-1.2091,0.0315,0.4512,-10.18,-3.13,-0.81,
1429,1661559999783,-1.1832,-0.4841,-0.1719,-6.48,-3.97,-2.0,
1430,1661559999784,-1.2438,0.1433,0.3364,-15.08,8.63,-5.28,
1431,1661559999784,-1.318,-0.3659,0.2075,-20.08,2.12,-0.17,
1432,1661559999785,-1.1778,-0.5295,0.0229,-22.48,-6.26,-0.81,
1433,1661559999785,-1.295,-0.0666,0.2197,-24.57,-8.79,1.1,
1434,1661559999786,-1.3746,-0.3967,0.2944,-21.67,-8.79,2.29,
1435,1661559999786,-1.2433,-0.322,0.1709,-22.37,-6.76,5.11,
1436,1661559999787,-1.3448,-0.1809,0.5869,-25.18,11.09,4.49,
1437,1661559999787,-1.2745,-0.2658,0.2549,-29.88,2.79,3.11,
1438,1661559999788,-1.2618,-0.0495,0.1968,-29.91,-1.19,3.48,
1439,1661559999788,-1.2921,-0.216,0.7876,-31.26,10.74,5.11,
1440,1661559999789,-1.4142,-0.1238,0.5405,-27.97,9.23,0.47,
1441,1661559999789,-1.0953,0.0823,-0.4072,-23.18,6.85,0.29,
1442,1661559999789,-1.2174,-0.1516,0.4941,-26.87,21.57,0.2,
1443,1661559999791,-1.1266,0.428,0.3701,-32.36,12.52,-3.72,
1444,1661559999791,-0.9342,-0.1189,-0.8296,-31.88,-4.06,2.75,
1445,1661559999791,-1.1217,0.1311,0.4687,-31.59,15.39,-6.01,
1446,1661559999791,-1.1764,0.261,0.5229,-32.97,8.04,-4.18,
1447,1661559999792,-0.9591,0.0677,-0.0908,-31.65,-8.2,-1.17,
1448,1661559999792,-0.9693,0.2127,-0.1997,-30.07,2.03,-3.63,
1449,1661559999793,-0.9625,0.1878,0.7637,-29.37,16.49,-2.73,
1450,1661559999793,-1.0699,0.1839,0.3139,-29.17,14.63,-5.28,
1451,1661559999795,-0.9596,0.1834,-0.1177,-28.99,13.36,-6.82,
1452,1661559999795,-0.964,-0.1262,0.3081,-33.77,10.16,-4.18,
1453,1661559999795,-0.9674,0.3548,0.4673,-29.77,16.49,-0.08,
1454,1661559999795,-0.8883,-0.0061,-0.3115,-24.57,12.02,2.2,
1455,1661559999796,-0.6715,-0.1604,-0.5005,-27.37,7.95,1.19,
1456,1661559999796,-0.8883,0.1858,0.2441,-27.37,3.48,-2.0,
1457,1661559999797,-0.8683,0.0042,0.395,-23.18,-3.64,-3.45,
1458,1661559999797,-0.8404,-0.0075,-0.4663,-22.08,-9.05,1.1,
1459,1661559999798,-0.775,0.1204,0.1362,-24.57,12.36,3.02,
1460,1661559999798,-0.8741,0.1609,0.5102,-26.76,17.18,4.85,
1461,1661559999798,-0.6681,0.1839,-0.5156,-23.07,4.48,2.75,
1462,1661559999799,-0.5377,0.01,-0.6035,-15.98,-1.35,4.12,
1463,1661559999799,-0.9,0.1717,0.4927,-16.28,12.1,4.39,
1464,1661559999800,-0.7242,0.5471,0.1821,-13.38,11.33,1.37,
1465,1661559999800,-0.5646,-0.0954,-1.0845,-13.08,6.1,7.77,
1466,1661559999801,-0.7906,0.4412,-0.0196,-13.18,9.14,2.47,
1467,1661559999801,-0.8321,0.3328,0.3486,-13.78,-1.18,6.67,
1468,1661559999802,-0.7423,0.1922,-0.0938,-10.97,-13.02,3.11,
1469,1661559999802,-0.7359,0.2937,-0.5044,-9.08,-10.99,4.21,
1470,1661559999802,-0.8649,0.1927,0.289,-8.38,3.31,6.76,
1471,1661559999803,-0.8844,0.3928,0.3867,-10.07,4.24,4.3,
1472,1661559999803,-0.8209,-0.0149,-0.3174,-6.38,-5.92,1.47,
1473,1661559999804,-0.963,-0.0217,0.2046,-6.97,-2.61,0.75,
1474,1661559999804,-0.961,0.2449,0.5366,-6.9,1.28,2.38,
1475,1661559999806,-0.9215,-0.0295,0.1128,-2.78,-1.1,2.47,
1476,1661559999806,-0.7345,-0.195,-0.3931,-5.28,-6.43,2.29,
1477,1661559999806,-1.0616,-0.0031,0.206,-9.98,-1.77,1.47,
1478,1661559999806,-0.9132,-0.2937,0.0884,-8.97,-10.06,1.1,
1479,1661559999807,-1.0279,-0.1438,-0.1446,-7.78,-17.08,8.77,
1480,1661559999807,-1.0963,-0.0573,0.1836,-8.57,-15.9,4.39,
1481,1661559999808,-1.0221,-0.2033,0.2412,-13.58,-15.74,3.48,
1482,1661559999808,-1.0758,-0.1252,0.0815,-13.78,-1.68,1.74,
1483,1661559999809,-1.0651,-0.1843,0.2129,-8.57,-0.34,5.66,
1484,1661559999809,-1.0797,-0.0935,0.0869,-8.88,3.48,3.57,
1485,1661559999809,-1.1114,-0.0823,0.1787,-13.87,-1.94,4.85,
1486,1661559999810,-1.3297,-0.1687,0.4746,-18.77,6.77,0.56,
1487,1661559999810,-1.151,0.0427,0.1367,-15.67,-10.4,2.93,
1488,1661559999811,-1.1315,-0.0559,-0.3897,-15.87,-9.82,0.11,
1489,1661559999811,-1.3121,-0.01,0.5854,-16.48,7.37,-3.26,
1490,1661559999812,-1.2936,0.0452,0.3076,-20.17,-2.11,-3.17,
1491,1661559999812,-1.2921,-0.2102,-0.0591,-24.99,-0.84,-4.64,
1492,1661559999813,-1.2872,0.1541,0.6528,-22.38,8.04,-3.81,
1493,1661559999813,-1.2677,-0.1711,0.2929,-22.28,0.26,-2.46,
1494,1661559999814,-1.2086,-0.0354,0.1611,-25.97,5.41,-7.55,
1495,1661559999814,-1.2799,0.0071,0.271,-29.57,6.77,-7.83,
1496,1661559999814,-1.2882,-0.2624,0.1694,-28.47,15.48,-4.0,
1497,1661559999815,-1.1935,0.0657,0.123,-29.17,14.8,-4.18,
1498,1661559999815,-1.276,-0.174,0.1328,-25.18,12.02,0.2,
1499,1661559999816,-1.0773,-0.3064,-0.0513,-32.58,-9.22,-1.27,
1500,1661559999816,-1.1866,0.0144,0.2148,-31.07,-10.75,-1.54,
1501,1661559999817,-0.9957,-0.1731,0.4541,-28.17,6.68,0.75,
1502,1661559999817,-1.0738,-0.0847,0.0112,-27.57,11.5,4.58,
1503,1661559999818,-1.0987,-0.0456,0.0825,-34.87,11.33,6.94,
1504,1661559999818,-1.1671,-0.073,0.623,-36.99,3.38,5.11,
1505,1661559999818,-1.0651,0.2317,0.272,-30.56,-0.51,-0.72,
1506,1661559999819,-0.9742,-0.1008,0.0644,-21.97,7.27,4.03,
1507,1661559999820,-0.9098,0.2337,0.48,-30.07,23.43,3.85,
1508,1661559999820,-0.8678,0.2942,-0.0332,-33.37,17.42,1.02,
1509,1661559999821,-0.8829,0.0891,-0.2725,-33.46,4.48,2.01,
1510,1661559999821,-0.8868,0.2405,-0.0396,-27.07,1.45,0.66,
1511,1661559999823,-0.8307,0.3162,0.2978,-24.06,8.21,1.37,
1512,1661559999823,-0.9088,0.3206,0.0137,-24.76,7.2,-2.46,
1513,1661559999823,-0.7252,0.3289,-0.2217,-26.67,3.64,2.66,
1514,1661559999823,-0.8375,0.1907,0.2637,-26.08,9.4,0.84,
1515,1661559999823,-0.8321,0.3172,0.3867,-24.08,18.28,-0.99,
1516,1661559999824,-0.7428,0.2078,-0.2544,-16.57,10.16,2.11,
1517,1661559999824,-0.6866,0.0637,-0.1446,-18.68,17.25,1.74,
1518,1661559999825,-0.7838,0.3504,0.2285,-22.08,8.71,1.47,
1519,1661559999825,-0.6359,0.0525,-0.2808,-19.97,2.96,0.56,
1520,1661559999826,-0.7154,0.0882,-0.3594,-12.48,-3.04,-1.36,
1521,1661559999826,-0.7555,0.1082,-0.1192,-11.87,1.09,1.65,
1522,1661559999827,-0.673,0.0296,0.2221,-15.78,-3.13,-0.53,
1523,1661559999827,-0.8976,0.012,-0.0581,-14.77,-11.33,1.37,
1524,1661559999827,-0.7189,-0.0515,-0.0713,-8.97,-5.41,7.22,
1525,1661559999828,-0.9322,0.1507,0.3008,-9.08,6.77,3.85,
1526,1661559999828,-0.7599,0.1458,0.1914,-9.09,15.39,-2.36,
1527,1661559999829,-0.7267,-0.0593,-0.1685,-13.98,-1.77,3.66,
1528,1661559999829,-0.9156,0.0755,-0.2129,-14.88,-4.4,0.47,
1529,1661559999830,-0.8102,0.3611,0.4131,-3.88,-3.64,6.03,
1530,1661559999830,-0.8717,0.1629,-0.0606,-3.08,-1.1,2.47,
1531,1661559999831,-0.7067,0.1809,-0.7559,-5.17,-1.1,0.29,
1532,1661559999831,-0.858,0.0969,-0.0537,-9.87,-0.75,2.56,
1533,1661559999831,-0.9942,0.2688,0.4199,-10.77,-3.3,1.02,
1534,1661559999832,-1.0445,0.2171,-0.0235,-5.17,-28.32,3.57,
1535,1661559999832,-1.0499,-0.1516,-0.3589,-3.88,-12.52,-0.63,
1536,1661559999833,-1.0978,0.22,0.6557,-6.18,6.01,0.75,
1537,1661559999834,-1.0284,-0.177,0.2929,-8.77,7.53,-0.08,
1538,1661559999834,-0.9957,-0.1941,-0.2315,-10.18,-4.23,1.28,
1539,1661559999834,-1.1373,-0.1374,0.3257,-10.68,-8.2,0.66,
1540,1661559999835,-1.2125,-0.1833,0.4741,-12.88,-3.13,-0.53,
1541,1661559999835,-1.1046,-0.1433,0.1059,-13.78,-2.28,-1.91,
1542,1661559999836,-1.1485,-0.3796,-0.3555,-15.08,-12.18,4.21,
1543,1661559999836,-1.0934,-0.3625,0.1323,-18.77,-11.68,0.75,
1544,1661559999837,-1.2799,-0.112,0.6045,-16.28,-6.67,2.2,
1545,1661559999837,-1.1373,-0.4148,-0.0191,-16.97,-11.75,2.2,
1546,1661559999838,-1.2731,-0.178,0.1103,-20.77,-5.92,4.3,
1547,1661559999839,-1.2628,-0.1721,0.9853,-26.76,3.55,4.3,
1548,1661559999839,-1.3815,-0.3176,0.2353,-26.47,1.09,6.21,
1549,1661559999839,-1.088,-0.135,-0.2593,-22.48,0.52,-0.26,
1550,1661559999839,-1.2399,-0.1325,0.2676,-23.97,15.48,1.37,
1551,1661559999840,-1.3536,0.1492,1.0249,-28.08,19.79,0.38,
1552,1661559999840,-1.2228,-0.0188,-0.2569,-28.17,-1.27,1.74,
1553,1661559999841,-1.2623,-0.0764,-0.2417,-28.17,2.21,2.47,
1554,1661559999842,-1.297,0.3216,0.518,-26.37,7.02,-0.35,
1555,1661559999842,-1.1871,0.0042,0.0957,-27.57,11.67,4.21,
1556,1661559999842,-1.17,0.1214,-0.1377,-29.27,8.71,-1.63,
1557,1661559999843,-1.1207,0.1975,-0.0059,-31.37,2.96,-0.17,
1558,1661559999843,-1.172,0.0545,0.5473,-29.27,17.94,2.84,
1559,1661559999844,-1.0729,0.095,0.27,-29.57,16.32,1.56,
1560,1661559999844,-1.0524,-0.1706,-0.2876,-28.76,10.49,0.02,
1561,1661559999845,-1.0367,0.0843,0.3808,-32.97,4.15,-2.81,
1562,1661559999845,-1.1754,0.1927,0.5337,-30.29,2.12,1.37,
1563,1661559999845,-1.0641,-0.1076,0.1406,-26.67,-1.51,-1.17,
1564,1661559999846,-1.0836,-0.1062,-0.1939,-31.26,1.45,4.03,
1565,1661559999847,-1.0123,0.1287,0.7041,-34.07,14.05,1.56,
1566,1661559999847,-1.0328,-0.0515,0.4033,-28.87,2.21,0.66,
1567,1661559999847,-0.8907,0.0847,-0.232,-25.37,-4.14,2.66,
1568,1661559999848,-0.8522,0.1067,0.4316,-27.07,6.77,5.66,
1569,1661559999848,-1.1134,0.1258,0.6357,-27.07,16.41,2.01,
1570,1661559999849,-0.8058,0.2112,-0.1143,-22.08,13.45,5.66,
1571,1661559999849,-0.8556,0.0257,-0.2515,-25.57,15.99,5.3,
1572,1661559999850,-0.7335,0.5354,0.1845,-22.96,14.05,-0.44,
1573,1661559999850,-0.6495,0.2464,-0.353,-18.98,6.27,0.84,
1574,1661559999851,-0.711,0.2464,-0.3721,-15.78,8.21,2.2,
1575,1661559999851,-0.7242,0.3606,-0.1968,-18.87,0.93,3.39,
1576,1661559999852,-0.694,0.304,-0.0318,-20.57,4.65,1.19,
1577,1661559999852,-0.712,0.4124,0.0727,-12.57,7.11,-1.08,
1578,1661559999852,-0.6276,0.1883,-0.3999,-11.78,-1.77,3.57,
1579,1661559999853,-0.7657,0.3177,0.0395,-11.58,-0.68,-0.08,
1580,1661559999853,-0.7482,0.3216,0.1821,-7.78,0.42,1.56,
1581,1661559999854,-0.8585,0.0398,-0.021,-5.87,1.28,3.11,
1582,1661559999854,-0.7462,0.0584,-0.0542,-9.98,4.74,0.2,
1583,1661559999855,-0.8649,0.159,0.2412,-13.18,0.93,0.66,
1584,1661559999855,-0.6603,-0.0832,-0.0547,-10.77,-2.03,3.3,
1585,1661559999856,-0.8629,0.032,-0.1216,-7.78,-10.4,-0.9,
1586,1661559999856,-0.8634,-0.154,0.1255,-4.49,-10.32,1.1,
1587,1661559999856,-0.878,-0.1394,0.1103,-8.68,-4.23,2.11,
1588,1661559999857,-0.735,0.0442,-0.0528,-7.78,-4.23,2.2,
1589,1661559999857,-0.6612,-0.2346,-0.0034,-9.38,-3.21,5.94,
1590,1661559999858,-0.9781,0.0442,-0.0337,-10.68,-10.49,1.28,
1591,1661559999858,-0.8741,-0.2429,-0.1802,-9.87,-15.22,10.59,
1592,1661559999859,-1.2228,0.0286,0.583,-12.37,-0.25,3.3,
1593,1661559999859,-1.025,0.0662,-0.0713,-7.87,-7.6,6.39,
1594,1661559999860,-1.0929,-0.2434,-0.1939,-5.87,-3.47,3.66,
1595,1661559999860,-1.0133,0.0896,0.312,-7.48,8.04,1.28,
1596,1661559999861,-1.066,0.1214,0.1543,-10.68,-8.79,0.47,
1597,1661559999861,-1.1549,-0.2029,-0.23,-13.67,-11.92,0.84,
1598,1661559999862,-1.2184,0.2332,0.3823,-15.18,-3.13,0.11,
1599,1661559999862,-1.2047,-0.2322,0.1303,-13.18,-3.13,2.2,
1600,1661559999862,-1.1944,0.176,0.0278,-13.47,-3.3,-1.91,
1601,1661559999863,-1.1285,0.0857,0.1264,-12.66,-0.25,3.3,
1602,1661559999863,-1.2462,-0.4138,0.3447,-18.28,6.6,-0.35,
1603,1661559999864,-1.2882,0.0501,0.247,-23.07,-2.45,-2.55,
1604,1661559999864,-1.339,-0.4421,0.1655,-25.07,-10.56,-0.08,
1605,1661559999865,-1.254,-0.1828,0.4848,-24.08,-3.89,-2.18,
1606,1661559999866,-1.3448,-0.092,0.3711,-24.09,7.37,1.1,
1607,1661559999866,-1.1119,-0.5466,-0.0313,-24.98,7.02,0.66,
1608,1661559999866,-1.3629,-0.009,0.5644,-28.56,2.96,-2.81,
1609,1661559999867,-1.3878,-0.0393,0.8608,-29.37,5.25,1.02,
1610,1661559999867,-1.3717,-0.2854,0.1518,-30.07,-6.76,-3.36,
1611,1661559999868,-1.0738,-0.0354,-0.1504,-28.27,5.84,0.02,
1612,1661559999868,-1.2208,-0.1628,0.6587,-30.87,17.35,2.84,
1613,1661559999869,-1.1583,0.262,0.1865,-31.07,15.9,-3.36,
1614,1661559999869,-1.0206,-0.1902,-0.4068,-27.47,2.96,2.93,
1615,1661559999870,-1.1749,0.0803,0.6264,-30.87,15.15,1.47,
1616,1661559999870,-1.1559,0.4651,0.622,-29.66,6.68,0.47,
1617,1661559999871,-0.9435,-0.0276,-0.3423,-30.67,4.65,0.56,
1618,1661559999871,-0.9674,0.1634,-0.0498,-33.26,6.27,-1.36,
1619,1661559999871,-1.0831,0.3103,0.6479,-32.67,7.02,-0.99,
1620,1661559999873,-1.1075,0.1448,0.2607,-28.27,7.27,-1.63,
1621,1661559999873,-0.9332,0.3284,-0.1284,-28.38,10.83,-4.46,
1622,1661559999873,-1.0514,0.115,0.3877,-30.17,9.14,0.84,
1623,1661559999873,-0.9464,0.2171,0.6489,-30.29,15.56,-3.72,
1624,1661559999874,-0.8194,0.2429,0.0346,-24.69,6.1,-0.9,
1625,1661559999874,-0.7467,-0.1018,-0.4414,-22.48,13.2,2.75,
1626,1661559999875,-0.9186,0.3401,0.3554,-25.27,18.69,1.1,
1627,1661559999875,-0.8702,0.0237,0.1152,-28.37,12.6,-0.17,
1628,1661559999876,-0.7101,-0.0383,-0.6846,-26.09,-11.08,-1.63,
1629,1661559999876,-0.8795,0.2039,0.1084,-18.77,0.68,4.67,
1630,1661559999877,-0.7613,0.1575,0.5835,-16.68,12.77,5.48,
1631,1661559999877,-0.8727,0.0257,-0.0952,-18.77,2.12,6.39,
1632,1661559999877,-0.5616,0.0598,-0.4868,-21.09,0.85,3.57,
1633,1661559999878,-0.8697,0.18,0.5718,-20.29,3.48,1.74,
1634,1661559999878,-0.6993,0.2537,0.0483,-15.78,4.24,5.3,
1635,1661559999879,-0.5719,-0.0036,-0.5479,-11.18,-3.13,4.94,
1636,1661559999879,-0.8102,0.1248,-0.086,-11.98,15.39,4.03,
1637,1661559999880,-0.8409,0.468,0.3989,-12.37,7.02,2.01,
1638,1661559999880,-0.733,0.032,-0.3413,-11.47,1.09,6.94,
1639,1661559999881,-0.6451,0.3313,-0.3628,-12.57,-4.23,0.38,
1640,1661559999881,-0.7618,0.242,0.0049,-10.38,-5.92,3.02,
1641,1661559999881,-0.8307,0.1809,0.0395,-11.47,-1.01,1.19,
1642,1661559999882,-0.8317,0.2532,-0.2017,-8.18,-6.09,4.21,
1643,1661559999882,-0.921,0.1609,0.0014,-7.58,-7.95,-0.26,
1644,1661559999883,-0.9459,0.2927,0.2895,-4.78,-6.26,-0.17,
1645,1661559999883,-0.7687,-0.1042,-0.0855,-3.78,-7.6,-1.63,
1646,1661559999884,-0.8722,0.0261,0.0493,-4.38,6.68,-2.36,
1647,1661559999884,-0.8658,0.1594,0.1743,-8.18,0.16,-3.91,
1648,1661559999885,-1.0333,-0.2141,-0.1197,-12.97,-11.08,-2.09,
1649,1661559999885,-1.0074,-0.1833,0.0991,-9.98,-9.3,0.93,
1650,1661559999886,-1.194,-0.0124,0.3896,-7.87,-6.93,1.47,
1651,1661559999886,-0.8771,-0.5178,-0.377,-9.87,-16.57,3.48,
1652,1661559999887,-1.131,-0.1936,0.1733,-13.27,-10.99,1.47,
1653,1661559999887,-1.0514,-0.0788,0.8252,-13.47,-2.2,4.49,
1654,1661559999887,-1.1847,-0.3674,-0.5977,-12.88,-26.22,7.49,
1655,1661559999888,-1.0797,-0.3518,0.0757,-13.38,-6.34,7.58,
1656,1661559999888,-1.2164,-0.1374,0.9731,-20.77,11.17,7.77,
1657,1661559999889,-1.2633,0.0452,0.5273,-17.97,-7.43,2.84,
1658,1661559999890,-1.0909,-0.344,-0.8111,-12.37,-19.7,7.31,
1659,1661559999890,-1.2609,-0.0285,0.7573,-16.48,13.87,5.57,
1660,1661559999890,-1.2809,0.3216,0.5166,-21.77,1.95,4.12,
1661,1661559999891,-1.2296,-0.3596,-0.4439,-25.66,-5.41,6.49,
1662,1661559999891,-1.3063,0.0174,0.4243,-24.17,-4.83,5.02,
1663,1661559999892,-1.2628,0.0779,0.6406,-24.57,1.95,1.1,
1664,1661559999892,-1.3556,0.0823,0.3135,-22.37,1.52,-1.91,
1665,1661559999893,-1.317,-0.0198,0.0825,-25.25,8.37,1.1,
1666,1661559999893,-1.2926,-0.1506,0.2407,-27.98,9.47,-1.27,
1667,1661559999894,-1.2052,0.1946,0.2964,-25.39,12.19,-1.54,
1668,1661559999894,-1.1969,-0.2146,0.1059,-24.06,14.89,-0.26,
1669,1661559999894,-1.1373,-0.424,-0.0137,-26.56,11.26,-0.72,
1670,1661559999896,-1.2726,0.0891,0.0654,-36.48,-4.47,-1.45,
1671,1661559999896,-1.1993,-0.0383,0.2729,-30.56,-1.1,2.11,
1672,1661559999896,-1.1124,-0.2566,0.0478,-27.05,-0.34,1.37,
1673,1661559999896,-1.1276,-0.0193,-0.0093,-28.87,4.65,3.94,
1674,1661559999897,-1.0377,-0.091,0.4463,-33.26,6.6,5.3,
1675,1661559999897,-1.1153,0.0554,0.5625,-31.88,2.96,1.83,
1676,1661559999898,-1.0675,0.0203,0.4404,-31.07,4.31,4.3,
1677,1661559999898,-1.1857,0.0467,0.1865,-28.87,5.25,-0.26,
1678,1661559999899,-0.923,0.2268,0.2783,-29.66,12.86,-2.18,
1679,1661559999899,-0.9772,-0.011,0.4131,-29.97,16.58,0.29,
1680,1661559999900,-0.84,0.3933,-0.0615,-32.36,12.52,-0.63,
1681,1661559999900,-0.8131,0.3069,-0.1543,-25.18,8.21,2.2,
1682,1661559999901,-0.9186,0.2151,0.3208,-23.57,10.57,2.75,
1683,1661559999901,-0.9147,0.3728,0.1494,-21.07,2.88,-1.72,
1684,1661559999902,-0.6949,0.302,-0.3828,-25.27,-0.58,-2.0,
1685,1661559999902,-0.7926,0.4505,0.0801,-26.78,7.37,-1.63,
1686,1661559999902,-0.7345,0.2996,0.1802,-20.08,9.23,3.85,
1687,1661559999903,-0.798,0.2332,-0.1392,-14.68,12.94,0.38,
1688,1661559999903,-0.6271,0.3152,-0.1089,-12.39,16.75,-0.72,
1689,1661559999904,-0.7628,0.1624,-0.0742,-14.28,5.75,1.47,
1690,1661559999904,-0.6481,0.1302,-0.0596,-17.46,4.74,0.38,
1691,1661559999905,-0.7169,0.1204,-0.3262,-13.87,-3.89,3.94,
1692,1661559999905,-0.6192,-0.01,-0.1524,-9.78,1.69,4.03,
1693,1661559999906,-0.8849,0.1306,0.1011,-12.18,-5.5,4.94,
1694,1661559999906,-0.8629,-0.1467,-0.0796,-10.77,-9.05,7.03,
1695,1661559999906,-0.7169,-0.0124,0.0527,-11.47,-17.0,5.66,
1696,1661559999907,-0.86,0.0447,0.2846,-12.18,-3.13,6.85,
1697,1661559999907,-0.7062,-0.031,0.3174,-12.89,6.44,10.5,
1698,1661559999909,-0.9835,0.013,-0.2974,-13.38,-5.76,9.03,
1699,1661559999909,-0.7784,0.0056,0.2046,-10.07,1.78,10.22,
1700,1661559999909,-1.0631,0.1575,0.4902,-7.87,-0.93,6.49,
1701,1661559999909,-0.7159,0.1326,-0.4707,-6.48,-1.61,4.67,
1702,1661559999910,-0.7247,-0.0622,-0.7588,-6.99,-6.09,4.58,
1703,1661559999910,-0.9313,0.1663,-0.042,-9.78,4.65,1.83,
1704,1661559999911,-0.985,0.1614,-0.0117,-8.68,-13.02,7.13,
1705,1661559999911,-0.9786,-0.0476,-0.3936,-12.48,-14.88,5.3,
1706,1661559999912,-1.0856,0.1248,0.1372,-7.58,-15.31,3.85,
1707,1661559999912,-1.0533,-0.0676,0.3237,-8.7,-7.27,0.2,
1708,1661559999913,-1.0231,0.0901,0.0747,-9.67,-9.05,0.47,
1709,1661559999913,-0.9967,-0.0588,-0.1367,-9.48,-7.86,3.57,
1710,1661559999914,-1.173,-0.217,0.2583,-9.17,5.5,3.57,
1711,1661559999914,-1.1329,0.0169,0.5473,-12.77,10.57,3.39,
1712,1661559999914,-1.0489,-0.3791,-0.2945,-13.18,-5.07,2.11,
1713,1661559999915,-1.0929,-0.1921,-0.0244,-18.48,-8.29,0.66,
1714,1661559999915,-1.2823,-0.115,0.5503,-17.38,-7.79,-2.36,
1715,1661559999916,-1.1105,-0.4343,-0.1358,-14.17,-11.75,3.39,
1716,1661559999916,-1.3033,-0.3298,-0.2237,-23.57,-12.18,4.12,
1717,1661559999917,-1.4,-0.1638,0.6582,-24.17,-9.05,3.66,
1718,1661559999917,-1.2213,-0.3259,0.6611,-22.87,-9.98,2.2,
1719,1661559999918,-1.1832,-0.2375,0.063,-23.07,-0.0,2.38,
1720,1661559999918,-1.2496,-0.1501,0.3496,-28.27,10.4,-1.72,
1721,1661559999919,-1.3248,0.0208,0.7407,-33.17,21.14,0.02,
1722,1661559999919,-1.3131,-0.1032,0.2998,-28.78,9.73,2.01,
1723,1661559999920,-1.2467,-0.0295,-0.002,-26.56,10.4,0.56,
1724,1661559999920,-1.2242,0.2561,0.021,-27.57,4.06,-2.73,
1725,1661559999920,-1.0782,0.076,0.2016,-28.38,15.56,-2.64,
1726,1661559999921,-1.1754,0.0725,0.0386,-31.17,8.04,-3.08,
1727,1661559999921,-1.1451,0.1677,-0.273,-30.36,-2.96,-1.45,
1728,1661559999923,-1.2521,0.1634,0.4995,-29.66,6.27,-2.09,
1729,1661559999923,-1.1969,0.1751,0.3262,-27.86,9.9,-5.46,
1730,1661559999923,-1.0231,0.0135,-0.1768,-30.76,5.5,-4.0,
1731,1661559999923,-0.9928,0.0916,0.143,-31.07,14.55,-7.37,
1732,1661559999924,-1.1344,0.1765,0.644,-27.18,10.91,-2.99,
1733,1661559999924,-1.1139,-0.0779,0.1772,-28.67,10.57,-4.09,
1734,1661559999925,-1.0968,0.1604,0.1391,-35.06,9.3,1.1,
1735,1661559999925,-1.0846,0.0745,0.3545,-31.77,10.66,-0.99,
1736,1661559999926,-0.9801,-0.0246,0.1177,-29.07,4.82,-2.9,
1737,1661559999926,-0.9269,0.0486,0.0073,-25.57,-1.18,-0.53,
1738,1661559999927,-0.8556,0.054,0.0698,-22.96,2.62,-0.17,
1739,1661559999927,-1.045,0.0554,0.1553,-25.77,12.43,5.3,
1740,1661559999928,-0.8365,0.0672,0.2973,-28.37,14.98,3.02,
1741,1661559999928,-0.8356,0.1184,-0.0161,-31.17,12.52,3.11,
1742,1661559999928,-0.7765,0.2068,-0.2803,-24.76,3.89,1.65,
1743,1661559999929,-0.7257,0.2093,0.2646,-16.57,15.48,8.41,
1744,1661559999929,-0.7955,0.3084,0.3266,-15.08,20.64,4.03,
1745,1661559999930,-0.6285,0.3484,-0.4561,-17.38,11.0,4.39,
1746,1661559999930,-0.7189,0.1551,-0.4727,-20.28,2.29,1.92,
1747,1661559999931,-0.7272,0.4129,0.2505,-19.47,8.46,4.49,
1748,1661559999931,-0.5841,0.2473,-0.4639,-15.78,-10.23,6.76,
1749,1661559999932,-0.8185,0.2854,-0.542,-13.47,-5.66,1.37,
1750,1661559999932,-0.7604,0.3611,0.4004,-12.18,5.08,3.39,
1751,1661559999933,-0.8238,0.3411,0.4502,-8.9,5.75,4.39,
1752,1661559999933,-0.7389,0.2571,-0.208,-6.77,0.68,6.03,
1753,1661559999933,-0.7818,-0.0154,-0.1343,-10.68,-3.8,4.3,
1754,1661559999934,-0.7814,0.177,0.5757,-11.49,4.15,1.19,
1755,1661559999934,-0.8439,0.0672,-0.1382,-10.97,-6.17,1.65,
1756,1661559999935,-0.8595,-0.1262,-0.4634,-4.78,-5.76,2.38,
1757,1661559999935,-0.8639,-0.0383,0.0434,-7.38,-1.68,2.29,
1758,1661559999936,-0.9625,0.0598,0.3095,-9.87,-1.44,4.58,
1759,1661559999936,-0.6749,-0.2571,-0.4082,-6.68,-14.38,8.04,
1760,1661559999937,-0.9391,-0.2121,-0.0181,-8.77,-11.25,2.84,
1761,1661559999937,-0.8888,-0.1213,0.2578,-13.08,-14.12,6.85,
1762,1661559999937,-1.086,-0.1062,-0.063,-11.2,-16.41,6.76,
1763,1661559999939,-0.9728,-0.1911,0.1772,-9.78,-9.05,5.11,
1764,1661559999939,-1.0494,-0.2292,0.2153,-9.4,-3.3,11.14,
1765,1661559999939,-1.0694,0.0457,0.397,-12.57,2.62,5.84,
1766,1661559999939,-1.0065,-0.1335,-0.0528,-11.18,-3.38,6.49,
1767,1661559999940,-1.0548,-0.2097,0.0263,-12.05,-1.1,1.28,
1768,1661559999940,-1.1866,0.1297,0.1338,-11.08,-5.33,2.01,
1769,1661559999941,-1.2657,-0.1697,0.0625,-13.78,0.85,8.22,
1770,1661559999941,-1.2032,-0.0881,0.0029,-19.18,-3.8,6.3,
1771,1661559999942,-1.1466,-0.0129,-0.0196,-20.08,-8.96,5.11,
1772,1661559999942,-1.3478,-0.0422,0.4267,-18.28,-9.56,0.2,
1773,1661559999943,-1.3053,0.0208,0.3286,-16.98,-6.93,-1.27,
1774,1661559999943,-1.2955,-0.3449,0.251,-18.39,-0.08,-2.81,
1775,1661559999945,-1.2828,0.0125,0.6518,-24.37,14.98,-2.64,
1776,1661559999945,-1.2545,-0.2263,0.2236,-24.28,7.2,-3.26,
1777,1661559999945,-1.2106,-0.3171,0.1562,-26.87,9.14,-1.27,
1778,1661559999945,-1.3463,-0.0627,0.397,-30.07,5.17,-2.9,
1779,1661559999945,-1.3883,-0.0891,0.3237,-30.47,1.95,0.93,
1780,1661559999946,-1.2198,-0.2141,-0.104,-29.17,-5.57,-1.17,
1781,1661559999946,-1.2433,-0.0173,0.2915,-26.87,11.5,2.01,
1782,1661559999947,-1.1803,-0.2712,0.2905,-28.17,6.6,2.01,
1783,1661559999947,-1.128,0.0838,0.02,-32.07,-5.41,-2.36,
1784,1661559999948,-1.1261,-0.0862,0.3408,-32.09,-3.89,-1.45,
1785,1661559999948,-1.1549,-0.0281,0.3262,-27.86,8.04,-1.27,
1786,1661559999949,-1.1656,0.1804,0.1821,-30.29,11.17,-1.82,
1787,1661559999949,-1.1031,-0.0188,0.2446,-33.26,19.12,-1.82,
1788,1661559999950,-1.0182,0.3347,0.3325,-30.47,13.7,-2.46,
1789,1661559999950,-0.9454,0.177,0.0429,-27.07,10.07,-2.46,
1790,1661559999951,-0.9586,0.0818,0.2051,-32.27,13.7,-5.19,
1791,1661559999951,-1.005,0.4329,0.0732,-36.07,10.57,-3.17,
1792,1661559999952,-0.9952,0.1985,0.0674,-33.57,9.06,0.29,
1793,1661559999952,-0.9244,0.2664,0.1836,-27.27,10.91,-6.47,
1794,1661559999953,-0.7482,0.3206,0.0986,-23.47,11.93,-6.56,
1795,1661559999953,-0.9444,0.2,0.126,-20.96,11.84,-5.28,
1796,1661559999953,-0.8541,0.2815,0.126,-25.47,6.18,-3.54,
1797,1661559999954,-0.7828,0.0076,-0.0352,-25.47,7.37,-2.64,
1798,1661559999954,-0.7682,0.2146,0.0815,-26.98,18.44,-1.27,
1799,1661559999956,-0.8151,0.1585,-0.0562,-21.77,17.25,-1.17,
1800,1661559999956,-0.6788,0.0369,-0.2627,-20.26,3.89,-1.36,
1801,1661559999956,-0.8126,0.1272,-0.2417,-19.38,-6.09,0.47,
1802,1661559999956,-0.7062,0.093,0.0351,-15.98,-3.21,-0.35,
1803,1661559999957,-0.7975,0.0237,-0.0518,-13.38,-0.75,1.56,
1804,1661559999957,-0.6554,0.0408,-0.1763,-16.88,5.41,4.49,
1805,1661559999959,-0.7462,0.0701,0.1015,-18.78,0.76,5.75,
1806,1661559999959,-0.8702,0.1951,0.0493,-14.77,-4.9,1.1,
1807,1661559999959,-0.7584,0.0769,-0.0547,-8.9,-13.61,5.39,
1808,1661559999959,-0.8287,0.0022,0.1142,-8.68,3.12,6.67,
1809,1661559999959,-0.691,0.3582,0.2739,-9.67,7.87,4.58,
1810,1661559999960,-0.7828,0.0862,-0.3853,-12.68,6.6,8.32,
1811,1661559999960,-0.8253,0.1907,-0.3496,-11.08,1.78,9.31,
1812,1661559999961,-0.8722,0.2644,0.0459,-14.77,-2.28,4.94,
1813,1661559999961,-0.9347,0.2669,0.3554,-9.98,-8.46,3.75,
1814,1661559999962,-0.8136,0.1668,-0.4644,-6.18,-17.41,5.02,
1815,1661559999962,-0.8473,0.1253,-0.167,-5.68,-12.09,2.93,
1816,1661559999963,-0.9,0.3509,0.5957,-8.18,8.46,-0.44,
1817,1661559999963,-0.8741,0.1858,0.0884,-5.48,-8.03,6.03,
1818,1661559999964,-0.962,-0.3039,-0.5293,-8.57,-5.33,4.12,
1819,1661559999964,-1.0475,0.0535,0.6308,-9.48,-1.68,7.13,
1820,1661559999964,-1.0992,-0.1574,0.2475,-10.97,-8.29,8.13,
1821,1661559999965,-0.8946,-0.32,-0.481,-9.49,-11.49,2.29,
1822,1661559999965,-1.1022,-0.1892,0.3398,-11.78,-3.64,3.39,
1823,1661559999966,-0.9816,-0.2136,0.3589,-13.67,-1.01,0.29,
1824,1661559999966,-1.1105,-0.2903,-0.127,-11.87,-13.28,4.3,
1825,1661559999967,-1.2037,-0.427,-0.1973,-14.68,-16.15,1.1,
1826,1661559999967,-1.2486,-0.1931,0.6904,-19.47,-9.56,3.66,
1827,1661559999968,-1.2384,-0.1115,0.3076,-16.89,-7.6,1.56,
1828,1661559999968,-1.128,-0.4377,-0.3037,-15.87,-9.56,3.3,
1829,1661559999969,-1.2228,-0.0134,0.5991,-21.87,4.65,-2.09,
1830,1661559999969,-1.2545,-0.0246,0.6543,-23.07,0.85,0.75,
1831,1661559999969,-1.2892,-0.323,-0.021,-20.48,1.61,-0.53,
1832,1661559999970,-1.2672,-0.0124,-0.0396,-21.07,-2.45,-2.09,
1833,1661559999970,-1.3585,0.096,0.583,-28.17,8.21,-1.17,
1834,1661559999971,-1.339,0.1575,0.6167,-30.76,6.51,-4.09,
1835,1661559999971,-1.2711,-0.1086,-0.0972,-27.07,2.21,-2.0,
1836,1661559999972,-1.2701,0.0486,0.1772,-29.89,7.61,-3.54,
1837,1661559999972,-1.2858,0.3128,0.5786,-25.07,12.77,-0.44,
1838,1661559999973,-1.1749,-0.1736,-0.0039,-24.18,4.48,-2.09,
1839,1661559999973,-1.1471,0.0828,0.1484,-28.55,14.8,-0.81,
1840,1661559999974,-1.1993,0.0281,0.2329,-32.38,9.98,-2.0,
1841,1661559999974,-1.1466,-0.1037,0.1704,-33.46,11.93,-1.27,
1842,1661559999975,-1.0807,0.0496,0.2051,-30.07,8.97,-2.73,
1843,1661559999975,-1.0987,-0.1057,-0.0132,-26.98,4.48,-1.17,
1844,1661559999976,-1.0651,-0.0339,0.0869,-25.37,-3.3,-2.81,
1845,1661559999976,-1.2047,0.0408,0.5903,-29.77,4.74,-0.17,
1846,1661559999977,-0.9674,-0.0754,0.1933,-32.36,3.98,1.92,
1847,1661559999977,-0.9513,0.1228,0.0259,-32.07,-0.58,3.11,
1848,1661559999978,-0.9396,0.0213,0.4814,-32.16,13.96,-0.17,
1849,1661559999978,-1.13,0.0462,0.7246,-28.27,10.16,-0.08,
1850,1661559999978,-0.9049,0.262,-0.4258,-22.48,0.52,-0.72,
1851,1661559999979,-0.9772,0.0554,0.291,-25.37,14.63,4.12,
1852,1661559999979,-0.9283,0.4011,0.7734,-25.27,21.65,0.75,
1853,1661559999980,-0.6642,0.197,-0.7105,-26.17,4.57,1.65,
1854,1661559999980,-0.713,0.1209,-0.8701,-28.87,7.95,2.2,
1855,1661559999981,-0.7809,0.5574,0.2602,-24.87,16.75,0.84,
1856,1661559999981,-0.7057,0.2644,0.1211,-18.97,10.07,-0.99,
1857,1661559999982,-0.7584,0.3562,-0.5562,-15.08,5.34,-2.9,
1858,1661559999982,-0.6739,0.3694,-0.0967,-15.2,7.61,0.75,
1859,1661559999982,-0.7218,0.3128,0.271,-16.78,18.95,-0.81,
1860,1661559999983,-0.5924,0.2425,-0.4287,-15.78,7.53,0.47,
1861,1661559999983,-0.6139,-0.0012,-0.6206,-14.68,-5.76,-2.64,
1862,1661559999984,-0.6808,0.197,0.1211,-6.07,3.48,-0.63,
1863,1661559999984,-0.8268,0.2932,0.2441,-6.59,-3.64,-0.44,
1864,1661559999986,-0.6979,-0.2136,-0.3736,-10.07,-1.01,5.2,
1865,1661559999986,-0.8273,0.054,0.1489,-16.88,-2.37,3.3,
1866,1661559999986,-0.8238,-0.0559,0.4678,-13.58,-1.94,5.02,
1867,1661559999986,-0.8424,-0.0466,-0.2266,-7.67,-16.91,2.47,
1868,1661559999987,-0.8917,-0.05,-0.1919,-4.27,-5.76,5.48,
1869,1661559999987,-0.7076,-0.1213,0.4155,-6.77,2.96,7.03,
1870,1661559999988,-0.9571,0.1175,0.1484,-10.07,4.99,6.12,
1871,1661559999988,-0.7316,-0.1867,-0.3911,-11.08,2.03,3.94,
1872,1661559999989,-1.0221,-0.0588,-0.0747,-11.78,0.26,3.75,
1873,1661559999989,-0.8981,0.1707,-0.0684,-8.86,-5.07,6.03,
1874,1661559999990,-0.9137,-0.0764,-0.1934,-6.29,-12.35,4.58,
1875,1661559999990,-0.9762,0.0232,-0.0811,-5.08,-9.82,3.94,
1876,1661559999990,-0.9986,0.0344,-0.1826,-8.18,-12.42,7.31,
1877,1661559999991,-1.1109,-0.0974,0.1767,-12.48,-0.68,4.58,
1878,1661559999991,-1.0978,0.0813,0.2778,-14.97,-4.14,3.11,
1879,1661559999992,-1.0548,-0.156,0.0141,-15.27,-12.59,6.39,
1880,1661559999992,-1.131,0.239,0.4516,-11.28,-5.92,3.02,
1881,1661559999993,-1.1432,0.0481,0.3677,-7.09,-1.1,5.84,
1882,1661559999993,-1.17,-0.3376,0.0342,-9.67,4.91,4.21,
1883,1661559999994,-1.2091,0.1287,0.2261,-16.97,6.44,-3.17,
1884,1661559999994,-1.2745,-0.3318,-0.0137,-20.48,-2.61,-1.17,
1885,1661559999995,-1.1886,-0.1975,0.1206,-23.07,-11.59,3.48,
1886,1661559999995,-1.3375,-0.1052,0.2827,-18.77,-12.94,3.85,
1887,1661559999995,-1.1232,-0.4856,0.0805,-16.88,-9.89,4.85,
1888,1661559999997,-1.2672,-0.3098,0.1875,-21.38,-3.8,5.11,
1889,1661559999997,-1.3883,-0.2087,0.7622,-27.07,2.62,3.94,
1890,1661559999997,-1.298,-0.3127,0.3022,-31.37,-11.33,4.3,
1891,1661559999997,-1.2716,-0.091,0.3237,-31.26,-1.77,2.84,
1892,1661559999998,-1.3014,-0.0515,0.9219,-28.27,15.06,6.85,
1893,1661559999998,-1.1891,-0.0456,-0.0557,-22.77,13.45,3.02,
1894,1661559999999,-1.1515,-0.1404,-0.2383,-23.47,4.57,8.22,
1895,1661559999999,-1.3131,0.1931,0.9848,-25.27,23.6,3.2,
1896,1661560000000,-1.1788,0.4344,0.5815,-28.27,5.58,3.94,
1897,1661560000000,-0.982,-0.2112,-0.8799,-31.37,-1.61,0.84,
1898,1661560000001,-1.0201,0.1052,0.2568,-34.67,6.85,-0.26,
1899,1661560000001,-1.1818,0.4016,0.6802,-30.67,3.98,2.01,
1900,1661560000001,-1.1222,0.0584,-0.4151,-24.28,-4.06,0.02,
1901,1661560000002,-1.1412,0.1907,0.23,-22.48,7.02,-1.17,
1902,1661560000003,-1.003,0.2556,0.8569,-32.36,21.07,-2.9,
1903,1661560000003,-1.1324,0.3113,0.5737,-32.67,13.36,-4.73,
1904,1661560000003,-0.9459,0.055,-0.2686,-28.17,3.98,-4.36,
1905,1661560000004,-0.9278,-0.0144,0.3359,-24.08,14.72,-2.0,
1906,1661560000004,-1.024,0.4573,0.5615,-24.76,25.13,-2.18,
1907,1661560000006,-0.9645,-0.0696,-0.419,-22.67,14.55,-0.44,
1908,1661560000006,-0.9181,-0.0422,-0.0996,-26.17,-5.16,-0.44,
1909,1661560000006,-1.0714,0.303,0.3984,-26.17,3.12,0.02,
1910,1661560000006,-0.8258,0.0901,0.125,-22.77,6.34,2.66,
1911,1661560000007,-0.8082,-0.1238,-0.4346,-20.77,5.08,9.22,
1912,1661560000007,-0.7325,0.1721,0.3432,-25.27,14.05,8.13,
1913,1661560000007,-0.9103,0.2161,0.2578,-21.48,4.31,7.03,
1914,1661560000009,-0.6422,0.0764,-0.4971,-14.48,-0.58,6.21,
1915,1661560000009,-0.7696,0.0608,0.1123,-14.28,3.72,8.22,
1916,1661560000009,-0.9078,0.2571,0.4619,-18.68,15.39,2.29,
1917,1661560000009,-0.6651,0.427,-0.1314,-14.37,13.12,4.21,
1918,1661560000010,-0.5934,-0.0232,-0.6885,-12.88,11.33,7.77,
1919,1661560000010,-0.7682,0.5056,-0.0122,-11.08,-0.42,4.39,
1920,1661560000011,-0.7379,0.3118,-0.0611,-10.77,-12.26,7.86,
1921,1661560000011,-0.7882,0.1385,-0.2354,-11.87,-6.67,7.68,
1922,1661560000012,-0.7848,0.1868,-0.1841,-12.3,-2.37,9.4,
1923,1661560000012,-0.8067,0.263,-0.0015,-15.67,-3.97,6.03,
1924,1661560000013,-0.7872,0.3982,0.3388,-9.08,-0.58,4.58,
1925,1661560000013,-0.8107,-0.0818,-0.0,-3.08,-10.15,7.95,
1926,1661560000014,-0.8937,0.0174,0.0141,-1.98,0.26,9.13,
1927,1661560000014,-0.9381,0.1541,0.2754,-5.48,-0.93,2.56,
1928,1661560000015,-0.7013,-0.2092,-0.1416,-8.57,1.95,4.21,
1929,1661560000016,-0.7911,-0.1394,-0.2808,-12.07,-9.13,4.85,
1930,1661560000016,-1.0587,-0.0857,-0.0718,-10.57,-8.63,7.22,
1931,1661560000016,-0.8951,-0.3479,-0.0283,-8.38,-13.45,8.87,
1932,1661560000016,-1.0538,-0.1877,0.04,-7.87,-12.01,7.68,
1933,1661560000017,-0.9537,-0.1706,0.0796,-7.78,-18.44,7.31,
1934,1661560000017,-1.1046,-0.3078,0.0586,-11.18,-13.95,7.13,
1935,1661560000018,-1.048,-0.2146,0.3945,-16.56,-2.45,7.22,
1936,1661560000018,-1.2364,-0.2038,0.1045,-17.97,1.52,4.03,
1937,1661560000019,-0.9986,-0.1286,-0.063,-14.48,-10.75,-0.26,
1938,1661560000019,-1.0323,-0.2273,0.3154,-10.88,-2.87,3.3,
1939,1661560000020,-1.2945,-0.074,0.6284,-12.76,3.22,0.2,
1940,1661560000020,-1.1617,0.0271,-0.3745,-15.78,-5.76,-0.9,
1941,1661560000021,-1.2916,-0.1501,0.104,-22.48,1.78,0.93,
1942,1661560000021,-1.3873,0.0989,0.5898,-23.07,-5.16,-0.44,
1943,1661560000021,-1.2286,-0.0935,-0.0474,-20.08,-12.94,0.56,
1944,1661560000023,-1.2906,0.0047,0.3711,-19.97,-0.25,-2.27,
1945,1661560000023,-1.2433,-0.0373,0.497,-19.38,4.65,-4.0,
1946,1661560000023,-1.3087,-0.0715,0.416,-22.78,7.2,-0.72,
1947,1661560000023,-1.2438,0.0232,0.3413,-24.38,9.4,-1.45,
1948,1661560000024,-1.2838,-0.2175,0.1675,-29.27,5.84,-1.91,
1949,1661560000024,-1.1632,-0.0168,0.2568,-31.37,4.91,-4.36,
1950,1661560000026,-1.2672,0.1033,0.23,-27.98,2.71,-2.73,
1951,1661560000026,-1.1329,-0.3938,-0.0098,-22.28,5.25,1.92,
1952,1661560000026,-1.357,-0.0544,0.1284,-22.37,6.18,-1.45,
1953,1661560000026,-1.1783,0.0457,0.393,-35.9,5.23,-3.08,
1954,1661560000027,-1.152,-0.0984,0.4189,-33.07,-8.37,-4.64,
1955,1661560000027,-1.1256,-0.135,-0.0005,-31.17,-6.85,-4.36,
1956,1661560000028,-1.0348,0.0803,0.3955,-29.07,13.03,2.93,
1957,1661560000028,-1.2067,0.2444,0.6308,-29.27,20.64,3.48,
1958,1661560000028,-1.068,-0.029,0.0659,-28.17,13.2,2.01,
1959,1661560000029,-1.0821,0.0681,0.3647,-30.36,19.04,1.28,
1960,1661560000030,-0.9151,0.4163,0.4521,-32.47,18.69,-6.56,
1961,1661560000030,-0.9098,0.2713,0.0019,-26.47,11.26,-4.64,
1962,1661560000031,-0.838,0.1248,-0.2559,-26.17,10.23,-4.64,
1963,1661560000031,-0.8942,0.426,0.2573,-29.46,12.52,-1.45,
1964,1661560000031,-1.024,0.3753,0.1909,-24.08,6.77,-0.99,
1965,1661560000032,-0.9274,0.2102,-0.2149,-24.37,7.61,0.66,
1966,1661560000032,-0.8048,0.3377,0.1416,-26.08,9.3,0.11,
1967,1661560000033,-0.8619,0.4534,0.2734,-26.98,14.29,-7.28,
1968,1661560000033,-0.7677,0.2688,-0.1079,-22.17,6.34,-0.81,
1969,1661560000034,-0.7936,-0.0012,-0.1446,-15.27,14.29,0.56,
1970,1661560000034,-0.798,0.365,0.1665,-13.69,14.22,2.47,
1971,1661560000035,-0.8082,0.1345,-0.2739,-14.79,3.81,3.57,
1972,1661560000035,-0.6754,0.0139,-0.1905,-17.38,1.95,2.01,
1973,1661560000035,-0.7252,0.0594,-0.0786,-15.98,0.85,2.47,
1974,1661560000036,-0.6373,0.0886,-0.2134,-12.28,-4.73,1.56,
1975,1661560000036,-0.8331,-0.0056,-0.021,-7.67,-4.4,1.56,
1976,1661560000037,-0.8414,-0.1194,0.1675,-12.68,-3.21,4.3,
1977,1661560000037,-0.7037,0.0427,-0.1255,-16.17,-12.78,1.65,
1978,1661560000038,-0.6925,0.0745,0.2514,-10.28,10.33,4.3,
1979,1661560000038,-0.7838,-0.0813,0.0757,-10.36,9.56,2.75,
1980,1661560000039,-1.0143,-0.0476,-0.1734,-13.27,1.45,5.84,
1981,1661560000039,-0.8229,0.2635,0.0771,-13.27,-7.79,4.39,
1982,1661560000041,-0.9264,0.1819,0.4443,-7.17,-0.68,2.2,
1983,1661560000041,-0.6964,0.075,-0.4697,-1.17,-3.71,0.84,
1984,1661560000041,-0.7814,0.0301,-0.6348,-4.27,-7.27,3.11,
