srNo,timestamp,ax,ay,az,gx,gy,gz,temp
17504,1661558124669,-1.3407,0.2902,0.5903,-6.3,10.53,-2.8,
17505,1661558124669,-1.3734,0.2604,0.5209,1.89,3.1,-2.27,
17506,1661558124670,-1.1791,0.1281,-0.0494,-1.01,-0.62,-8.01,
17507,1661558124670,-1.2616,0.2663,0.497,-1.89,17.57,-6.82,
17508,1661558124671,-1.2211,0.216,0.331,-0.61,12.99,-10.2,
17509,1661558124671,-1.1762,0.2448,0.0605,-0.49,14.79,-11.1,
17510,1661558124672,-1.1508,0.2775,0.2538,-1.91,12.91,-11.56,
17511,1661558124672,-1.079,0.2555,0.3119,-1.1,7.92,-10.39,
17512,1661558124672,-0.9862,0.1838,-0.0592,-4.9,6.64,-10.2,
17513,1661558124673,-1.0082,0.1384,-0.0396,-1.6,13.94,-4.63,
17514,1661558124673,-0.9862,0.1994,0.0483,1.69,13.59,-12.57,
17515,1661558124674,-0.9154,0.1281,0.0829,-1.08,11.83,-10.83,
17516,1661558124674,-0.9545,0.0304,-0.0269,-1.2,7.24,-8.92,
17517,1661558124675,-0.8759,0.0348,-0.1075,0.0,0.66,-7.0,
17518,1661558124675,-0.8983,0.0085,0.0907,3.1,3.51,-5.73,
17519,1661558124676,-0.8642,0.0651,0.2353,3.1,5.22,-2.36,
17520,1661558124676,-0.911,0.1183,0.142,2.08,2.75,-3.08,
17521,1661558124677,-0.9398,0.0929,0.2743,-0.2,7.25,-1.35,
17522,1661558124677,-0.6566,0.0158,0.1401,1.4,1.15,0.29,
17523,1661558124677,-0.7982,0.1349,0.0805,2.58,6.31,-0.26,
17524,1661558124678,-0.7699,0.3395,0.3998,2.59,15.02,-1.17,
17525,1661558124678,-0.744,0.2121,-0.0108,9.81,0.83,-4.45,
17526,1661558124679,-0.56,0.1633,-0.1934,8.9,10.64,-6.28,
17527,1661558124679,-0.745,0.4884,0.1342,9.9,3.12,-9.01,
17528,1661558124679,-0.6264,0.1427,-0.3775,11.6,-2.41,-3.63,
17529,1661558124680,-0.5809,0.3962,-0.255,12.3,-7.04,-3.9,
17530,1661558124680,-0.6845,0.5104,-0.0406,14.89,4.55,-6.37,
17531,1661558124680,-0.663,0.2424,-0.1558,16.08,-0.45,0.11,
17532,1661558124681,-0.6293,0.1896,-0.3902,17.61,1.16,-3.72,
17533,1661558124681,-0.6771,0.1769,-0.045,19.29,-1.29,-1.72,
17534,1661558124681,-0.8226,0.0724,-0.1256,17.98,-9.76,-8.28,
17535,1661558124682,-0.7997,-0.0741,-0.107,18.01,-8.05,-1.08,
17536,1661558124682,-0.8632,-0.1844,-0.0792,18.88,0.98,-7.64,
17537,1661558124683,-0.8275,-0.0863,-0.0919,15.5,-9.24,-4.63,
17538,1661558124683,-0.8339,-0.1146,-0.0792,15.81,-11.94,-7.09,
17539,1661558124684,-1.0184,-0.348,0.1459,16.68,-8.16,3.94,
17540,1661558124684,-0.9208,-0.1746,-0.0386,12.5,-15.25,-3.35,
17541,1661558124686,-1.1767,-0.3709,0.2465,10.7,-15.51,3.03,
17542,1661558124686,-0.9589,-0.2327,0.1747,13.4,-21.51,-1.35,
17543,1661558124687,-1.1044,-0.1532,0.1562,13.67,-11.03,2.38,
17544,1661558124687,-1.1347,-0.1761,0.3735,9.29,-5.78,3.57,
17545,1661558124688,-1.1122,-0.0687,0.2236,8.0,-8.74,5.39,
17546,1661558124688,-1.0795,-0.0277,0.2143,9.8,-4.6,0.75,
17547,1661558124688,-1.143,-0.1107,0.1611,8.68,-8.92,-1.9,
17548,1661558124689,-1.0546,0.0925,0.0712,8.59,-5.43,-4.73,
17549,1661558124689,-1.1498,0.1174,0.144,7.81,-10.0,-2.0,
17550,1661558124689,-1.1991,0.1305,-0.003,10.19,-13.48,-6.28,
17551,1661558124689,-1.1942,0.1208,-0.0762,11.6,-11.88,-5.18,
17552,1661558124690,-1.2943,0.07,0.4052,6.0,-1.81,-6.28,
17553,1661558124690,-1.2709,0.0182,0.1987,4.11,-11.77,-9.93,
17554,1661558124691,-1.2338,0.0353,0.0839,1.69,-5.44,-8.83,
17555,1661558124691,-1.3388,-0.0194,0.5971,1.51,2.86,-11.65,
17556,1661558124692,-1.351,-0.0291,0.558,3.1,4.72,-6.37,
17557,1661558124692,-1.3163,-0.1522,0.1332,2.41,1.67,-8.92,
17558,1661558124692,-1.3583,-0.1395,0.4574,-0.9,10.2,-4.91,
17559,1661558124693,-1.351,-0.0199,0.4433,-3.1,6.31,-10.39,
17560,1661558124693,-1.2348,-0.2025,0.0688,-4.38,2.02,-8.01,
17561,1661558124694,-1.4008,-0.2298,0.4477,-2.91,5.89,-8.19,
17562,1661558124694,-1.2177,-0.1336,0.3803,-3.22,1.49,-5.09,
17563,1661558124695,-1.2035,-0.0697,0.1659,-5.1,2.84,-3.99,
17564,1661558124695,-1.2826,-0.0404,0.4809,-7.6,6.92,-3.63,
17565,1661558124696,-1.1181,-0.0081,0.2695,-6.21,4.28,0.48,
17566,1661558124696,-1.1054,0.1676,0.2885,-7.19,16.3,-3.44,
17567,1661558124696,-1.0004,0.1452,0.1865,-4.49,8.87,-2.09,
17568,1661558124699,-0.9486,0.1154,-0.0958,-2.39,12.67,-4.82,
17569,1661558124699,-0.9838,0.3942,0.3652,-0.18,15.46,-2.0,
17570,1661558124699,-0.9994,0.3547,-0.1793,-1.91,2.93,-4.09,
17571,1661558124699,-0.7875,0.3659,-0.2388,1.31,5.32,-5.92,
17572,1661558124699,-0.9242,0.4108,0.2538,2.11,14.7,-4.36,
17573,1661558124699,-0.8139,0.2585,-0.0333,3.82,9.11,-6.56,
17574,1661558124701,-0.8246,0.2692,-0.3262,4.32,8.11,-6.63,
17575,1661558124701,-0.8925,0.3249,0.4677,3.89,16.8,-14.66,
17576,1661558124702,-0.8163,0.2477,0.0112,2.21,0.07,-11.38,
17577,1661558124702,-0.7059,0.2345,-0.2017,6.09,1.58,-11.2,
17578,1661558124702,-0.7904,0.0558,0.2011,4.11,3.19,-8.19,
17579,1661558124703,-0.8812,-0.0145,0.1874,5.62,6.75,-5.28,
17580,1661558124703,-0.7689,0.026,-0.0191,7.9,8.02,-9.66,
17581,1661558124703,-0.8192,0.0383,0.1293,8.79,11.39,-1.63,
17582,1661558124704,-0.7597,0.049,0.0727,7.17,4.03,-1.63,
17583,1661558124704,-0.5692,-0.0111,-0.2052,9.11,-0.86,-1.45,
17584,1661558124705,-0.8256,-0.0706,-0.0831,11.51,-6.11,0.66,
17585,1661558124705,-0.4559,0.0846,-0.251,13.2,-7.21,0.11,
17586,1661558124705,-0.7787,0.0759,-0.213,9.1,-17.12,5.48,
17587,1661558124706,-0.7079,0.1149,0.1938,7.29,-16.11,-1.72,
17588,1661558124706,-0.6102,0.0173,-0.42,7.89,-41.48,0.29,
17589,1661558124707,-0.7006,0.0549,-0.3145,19.21,-4.5,-2.64,
17590,1661558124707,-0.83,0.2111,0.3241,24.38,15.28,-1.17,
17591,1661558124708,-0.7357,-0.0633,-0.2213,15.79,4.37,1.19,
17592,1661558124708,-0.8446,0.1857,0.1635,3.69,-14.58,5.3,
17593,1661558124708,-0.9501,0.2414,0.3705,7.4,-20.41,0.11,
17594,1661558124709,-0.7538,0.0968,-0.0997,17.59,-24.23,-0.07,
17595,1661558124709,-1.0126,0.0842,0.0073,22.39,1.09,-0.8,
17596,1661558124710,-1.08,-0.0472,0.412,19.59,6.41,-4.36,
17597,1661558124710,-1.0936,-0.0057,0.0087,12.18,-1.31,-5.83,
17598,1661558124711,-1.1327,-0.057,0.329,9.81,-10.84,-5.73,
17599,1661558124711,-1.1952,-0.1151,0.3754,11.69,-21.1,-6.73,
17600,1661558124712,-1.0536,-0.036,0.079,11.2,-13.65,-4.45,
17601,1661558124712,-1.1195,-0.1541,0.1142,11.09,4.05,-0.35,
17602,1661558124712,-1.2001,-0.2606,0.2641,10.77,2.84,-1.63,
17603,1661558124713,-1.08,-0.1917,0.079,7.81,-6.69,-2.54,
17604,1661558124713,-1.2177,-0.2215,0.2079,2.11,-11.87,0.48,
17605,1661558124714,-1.0849,-0.2034,-0.0445,4.09,-21.1,0.48,
17606,1661558124714,-1.2782,-0.2528,-0.0338,1.4,-11.44,2.29,
17607,1661558124715,-1.3021,-0.2064,0.3017,3.79,-4.1,-0.26,
17608,1661558124715,-1.2714,-0.1087,0.1899,3.89,-3.66,-0.44,
17609,1661558124716,-1.3226,-0.1663,0.3339,3.3,-3.67,-0.35,
17610,1661558124716,-1.2562,-0.0921,0.3022,-0.52,-9.5,-1.08,
17611,1661558124717,-1.2279,0.0895,0.4623,-5.58,-2.13,-3.63,
17612,1661558124717,-1.3578,0.0187,0.4496,-4.39,3.44,-2.64,
17613,1661558124717,-1.3871,-0.0028,0.1381,0.6,8.02,-7.09,
17614,1661558124719,-1.3319,0.2721,0.5282,-0.5,13.33,-2.36,
17615,1661558124719,-1.349,0.2306,0.393,-0.18,11.48,-6.37,
17616,1661558124720,-1.2089,0.048,0.0029,-2.38,3.36,-5.55,
17617,1661558124720,-1.2392,0.0978,0.1869,-5.4,8.5,-5.28,
17618,1661558124721,-1.2455,0.2463,0.5156,-6.1,6.15,-7.73,
17619,1661558124721,-1.2089,0.1266,0.1542,-6.0,5.32,-9.11,
17620,1661558124721,-1.1366,0.1711,0.3188,-3.39,15.54,-2.18,
17621,1661558124721,-1.0106,0.1984,0.226,-5.49,17.64,-4.82,
17622,1661558124721,-0.9603,0.1579,0.0634,-4.09,15.29,-7.18,
17623,1661558124722,-0.9682,-0.0116,-0.0191,-1.4,10.03,-2.71,
17624,1661558124722,-0.9877,0.0319,0.0082,-5.58,7.68,-3.08,
17625,1661558124723,-0.9125,0.1281,-0.0382,-4.18,5.06,-4.73,
17626,1661558124723,-0.9345,0.0417,0.0248,-4.59,9.97,-3.08,
17627,1661558124724,-0.9677,0.0173,-0.0596,-1.3,5.91,-6.01,
17628,1661558124724,-0.7426,-0.013,-0.1612,-0.59,-0.54,-5.0,
17629,1661558124725,-0.9823,0.0129,0.1078,-0.5,-7.04,-3.44,
17630,1661558124725,-0.7533,0.0593,0.2226,0.92,3.62,-4.18,
17631,1661558124727,-0.8934,0.0597,0.1796,1.8,5.54,-0.16,
17632,1661558124727,-0.6415,0.0788,0.1371,0.09,9.19,-4.63,
17633,1661558124727,-0.7006,0.113,0.1025,-0.52,4.37,-1.72,
17634,1661558124727,-0.828,0.1872,0.2885,2.0,8.76,-2.9,
17635,1661558124727,-0.7318,0.1696,-0.0943,3.1,-2.73,-5.55,
17636,1661558124728,-0.5951,0.2253,-0.0548,9.89,8.11,-0.71,
17637,1661558124728,-0.6347,0.4406,0.1093,9.11,10.21,-5.37,
17638,1661558124729,-0.7279,0.3498,-0.1949,11.51,6.75,-0.44,
17639,1661558124729,-0.5683,0.1535,-0.336,6.3,-0.88,-1.35,
17640,1661558124730,-0.6776,0.4743,0.0082,8.79,-5.02,-3.44,
17641,1661558124730,-0.6669,0.1794,-0.2667,15.4,-13.9,-4.45,
17642,1661558124731,-0.6513,0.0925,-0.38,18.31,-8.65,1.93,
17643,1661558124731,-0.6557,0.2155,-0.0718,12.59,3.51,-3.26,
17644,1661558124732,-0.7597,0.0426,-0.0811,13.6,0.07,-0.35,
17645,1661558124732,-0.7772,0.0099,-0.2042,11.41,-4.08,-3.08,
17646,1661558124732,-0.806,-0.1805,0.0429,12.79,-10.77,0.84,
17647,1661558124733,-0.9286,-0.1488,0.0102,15.0,-11.44,0.11,
17648,1661558124734,-0.851,-0.1302,-0.0548,14.91,-8.31,1.29,
17649,1661558124734,-0.934,-0.264,0.1425,12.91,-5.52,0.02,
17650,1661558124734,-0.9437,-0.1273,0.1708,10.71,-18.29,-0.26,
17651,1661558124736,-1.0717,-0.265,-0.003,12.59,-22.2,4.86,
17652,1661558124736,-1.1386,-0.4071,0.3339,10.7,-9.59,3.3,
17653,1661558124737,-1.0082,-0.095,0.225,9.1,-12.89,7.04,
17654,1661558124737,-1.1688,-0.1981,0.288,7.42,-10.08,2.84,
17655,1661558124738,-1.1039,-0.0428,0.2016,6.09,-11.79,2.11,
17656,1661558124738,-1.1405,0.008,0.1967,6.41,-8.05,2.02,
17657,1661558124738,-1.1351,-0.0858,0.2509,6.71,-9.91,-2.71,
17658,1661558124739,-1.2323,0.0622,-0.0103,6.3,-11.61,-1.26,
17659,1661558124739,-1.0951,0.2126,0.1117,5.62,-0.03,-1.17,
17660,1661558124739,-1.2435,0.1647,0.0668,5.01,-2.22,-5.55,
17661,1661558124739,-1.2069,0.131,-0.0548,5.81,-5.52,-2.27,
17662,1661558124740,-1.2352,0.089,0.1459,4.4,-9.41,-7.92,
17663,1661558124740,-1.2719,0.1242,0.3744,4.4,-8.57,-8.1,
17664,1661558124741,-1.328,0.0588,0.0556,3.3,-8.98,-9.84,
17665,1661558124741,-1.2665,-0.0604,0.1264,2.09,5.13,-9.01,
17666,1661558124741,-1.3285,-0.0858,0.5375,-1.49,9.36,-5.64,
17667,1661558124742,-1.3295,-0.0579,0.2167,-1.6,5.56,-6.73,
17668,1661558124742,-1.2992,-0.2816,0.1952,-4.38,3.96,-7.64,
17669,1661558124743,-1.4345,-0.1829,0.5922,-5.08,11.48,-9.66,
17670,1661558124743,-1.3056,-0.1234,0.0737,-4.0,-4.51,-10.74,
17671,1661558124744,-1.2645,-0.2318,0.0502,-5.0,4.03,-6.19,
17672,1661558124745,-1.4564,-0.2171,0.5365,-7.08,5.91,-4.09,
17673,1661558124745,-1.1034,-0.0853,0.2197,-8.7,3.44,-3.17,
17674,1661558124745,-1.2968,-0.0858,0.3207,-10.19,2.17,-4.91,
17675,1661558124746,-1.0741,-0.0838,0.4623,-7.2,4.72,-2.9,
17676,1661558124746,-1.0736,0.0251,0.2856,-5.98,6.75,-7.18,
17677,1661558124747,-1.0683,0.1574,0.2787,-6.5,16.88,-4.73,
17678,1661558124747,-0.9989,0.2126,0.0322,-6.61,8.18,-1.81,
17679,1661558124748,-0.8656,0.1828,0.207,-9.28,14.2,-0.99,
17680,1661558124748,-1.0077,0.3439,0.2221,-7.6,8.43,2.11,
17681,1661558124748,-0.7221,0.276,-0.4332,-2.68,4.22,-6.19,
17682,1661558124749,-0.7665,0.318,-0.2364,-0.2,11.48,-1.81,
17683,1661558124749,-0.975,0.4469,0.4218,-0.61,12.91,-7.0,
17684,1661558124750,-0.808,0.2262,-0.274,-1.49,-4.68,-6.91,
17685,1661558124750,-0.8417,0.258,0.1108,-1.08,11.14,-10.11,
17686,1661558124752,-0.8568,0.2331,0.3886,3.1,9.36,-3.99,
17687,1661558124752,-0.6767,0.1457,-0.2315,6.38,9.36,-7.92,
17688,1661558124752,-0.7572,0.132,-0.065,4.78,18.91,-4.82,
17689,1661558124753,-0.8314,0.0026,0.2802,0.08,16.04,-4.63,
17690,1661558124753,-0.7719,-0.0081,-0.107,2.41,3.19,-9.11,
17691,1661558124753,-0.7445,0.0046,-0.0518,3.1,-1.05,-7.09,
17692,1661558124754,-0.7753,-0.0277,0.1777,7.62,2.93,-8.1,
17693,1661558124755,-0.6571,-0.0037,-0.0855,9.2,-3.73,-4.27,
17694,1661558124755,-0.7372,-0.0501,-0.2291,7.89,3.51,-2.0,
17695,1661558124756,-0.7601,0.0529,0.06,9.0,7.76,-3.17,
17696,1661558124756,-0.4906,0.1154,-0.2257,6.3,2.84,-2.99,
17697,1661558124756,-0.7445,0.0583,0.0947,9.81,16.13,-1.81,
17698,1661558124756,-0.7074,0.0295,0.0273,9.8,11.65,3.39,
17699,1661558124756,-0.661,0.0046,-0.2711,9.81,-0.86,6.31,
17700,1661558124757,-0.7601,0.1647,0.122,5.4,-13.39,2.93,
17701,1661558124757,-0.9452,0.1398,-0.2628,10.01,-36.81,-1.35,
17702,1661558124758,-0.8041,0.1745,-0.1319,16.8,-10.42,-0.44,
17703,1661558124758,-0.851,0.194,0.1171,17.78,10.37,-0.8,
17704,1661558124759,-0.9393,0.1667,0.0146,9.67,2.58,0.11,
17705,1661558124759,-0.891,0.0925,-0.2374,9.1,-3.92,-1.9,
17706,1661558124760,-1.0648,0.0695,0.3554,8.32,-8.72,-6.82,
17707,1661558124760,-1.1527,0.0343,0.0844,11.89,-28.51,-3.81,
17708,1661558124761,-1.0844,0.0202,-0.0372,15.29,-22.61,-4.91,
17709,1661558124761,-1.1459,-0.0745,0.3813,12.89,-5.44,-5.73,
17710,1661558124762,-1.141,-0.1947,0.2289,11.09,4.28,-3.08,
17711,1661558124762,-1.0131,-0.1771,0.0561,8.1,-3.57,-4.09,
17712,1661558124762,-1.2431,-0.3123,0.308,7.98,-2.24,-0.26,
17713,1661558124763,-1.101,-0.2103,0.1122,4.3,-18.38,-4.82,
17714,1661558124763,-1.2558,-0.2357,0.058,3.4,-12.8,-0.9,
17715,1661558124764,-1.2309,-0.2899,0.1845,2.3,-5.85,-5.28,
17716,1661558124764,-1.098,-0.2332,0.0546,-0.2,-6.3,-0.99,
17717,1661558124765,-1.2958,-0.2913,0.1742,0.61,-6.86,-2.18,
17718,1661558124765,-1.1723,-0.0946,0.3525,-1.39,-12.61,-0.07,
17719,1661558124766,-1.3602,-0.1492,0.3505,-1.78,-11.18,-3.63,
17720,1661558124766,-1.2714,-0.2186,0.3647,0.31,-2.22,-1.35,
17721,1661558124766,-1.3544,0.0236,0.3896,-3.98,3.79,-1.72,
17722,1661558124767,-1.225,0.0578,0.5087,-4.59,16.13,-1.72,
17723,1661558124767,-1.3642,-0.0716,0.3813,-6.39,7.83,-0.53,
17724,1661558124768,-1.1967,0.1037,0.3032,-5.89,9.97,-7.0,
17725,1661558124768,-1.3861,0.1926,0.5302,-4.59,5.73,-5.28,
17726,1661558124769,-1.2792,0.0309,0.1518,-5.28,4.98,-7.73,
17727,1661558124769,-1.1737,0.1071,0.0546,-3.01,3.62,-5.92,
17728,1661558124770,-1.2138,0.1847,0.3666,-7.7,13.75,-5.92,
17729,1661558124770,-1.2167,0.1481,0.3119,-5.1,11.05,-8.65,
17730,1661558124772,-1.1527,0.089,0.1362,-5.89,13.6,-7.64,
17731,1661558124772,-1.0092,0.1003,0.2905,-4.52,12.32,-9.11,
17732,1661558124772,-1.0297,0.1418,0.2255,-2.99,8.95,-9.11,
17733,1661558124773,-1.0121,-0.0072,-0.0484,-6.39,6.81,-8.46,
17734,1661558124773,-1.0331,0.0236,0.0712,-7.6,15.71,-4.45,
17735,1661558124774,-1.0224,0.1203,0.1889,-9.29,15.78,-3.08,
17736,1661558124774,-0.85,0.0143,-0.0245,-9.09,11.3,-5.0,
17737,1661558124775,-0.9384,0.0119,-0.0596,-6.19,7.25,-7.55,
17738,1661558124775,-0.8632,0.0202,-0.0416,0.09,1.49,0.02,
17739,1661558124776,-0.8143,0.0426,-0.0406,-0.91,0.14,-0.26,
17740,1661558124776,-0.7728,0.1315,0.1747,-1.22,7.16,-1.81,
17741,1661558124776,-0.9061,0.0944,0.081,-1.69,0.74,-0.9,
17742,1661558124776,-0.8685,0.0197,0.0522,-2.39,5.65,1.03,
17743,1661558124777,-0.6601,0.0719,0.0082,-2.59,2.77,-2.54,
17744,1661558124778,-0.8065,0.1706,0.1332,0.5,12.07,-1.63,
17745,1661558124778,-0.7064,0.2468,0.0937,4.01,9.21,-1.26,
17746,1661558124778,-0.7182,0.1574,-0.1851,4.41,1.5,0.29,
17747,1661558124778,-0.5951,0.235,-0.0421,3.1,9.28,-2.27,
17748,1661558124779,-0.7621,0.3957,0.0668,3.3,0.16,0.11,
17749,1661558124779,-0.6312,0.0729,-0.3092,4.61,-5.26,3.67,
17750,1661558124780,-0.6049,0.1271,-0.2525,10.1,-8.81,-3.63,
17751,1661558124780,-0.6532,0.4797,0.0121,12.97,1.82,-2.18,
17752,1661558124781,-0.6942,0.2018,-0.2633,14.7,-3.17,-3.72,
17753,1661558124782,-0.6571,0.1164,-0.314,12.99,3.12,-0.71,
17754,1661558124782,-0.7304,0.1056,0.1108,11.8,-4.01,-3.44,
17755,1661558124783,-0.8041,-0.0057,-0.1539,9.89,-8.91,1.74,
17756,1661558124783,-0.7675,-0.0037,-0.2305,11.2,-16.28,-4.09,
17757,1661558124784,-0.7772,-0.1883,0.0385,13.89,2.35,1.29,
17758,1661558124784,-0.9452,-0.1556,0.0185,12.88,-9.5,-6.37,
17759,1661558124784,-0.9257,-0.1844,-0.003,9.31,-13.13,-0.53,
17760,1661558124784,-1.0829,-0.2728,0.3681,9.89,-16.43,-1.08,
17761,1661558124785,-0.9706,-0.1375,0.0966,10.5,-13.73,1.38,
17762,1661558124785,-1.1439,-0.3543,0.1215,9.61,-13.64,2.29,
17763,1661558124786,-1.0106,-0.1488,0.3813,4.2,-12.89,1.93,
17764,1661558124786,-1.0321,-0.0408,0.4203,5.89,-14.14,-2.09,
17765,1661558124787,-1.1903,-0.161,0.2597,8.71,-10.51,2.2,
17766,1661558124787,-1.1268,-0.0902,0.1254,7.29,-14.58,5.39,
17767,1661558124788,-1.1151,-0.0145,0.3915,4.99,-2.31,5.12,
17768,1661558124788,-1.1718,-0.0819,0.1293,1.6,-3.17,3.57,
17769,1661558124789,-1.1986,0.0666,-0.148,1.3,-4.77,0.84,
17770,1661558124789,-1.1376,0.1701,0.1215,2.09,-2.63,-1.54,
17771,1661558124789,-1.3075,0.1056,0.2988,3.71,-4.76,-6.28,
17772,1661558124790,-1.2699,0.0387,-0.0421,4.32,-12.87,-1.45,
17773,1661558124790,-1.3036,0.0851,0.3207,2.3,-3.17,-5.0,
17774,1661558124790,-1.3075,0.1281,0.4638,-0.59,1.07,-5.64,
17775,1661558124791,-1.3422,0.0641,0.1249,-3.19,-3.23,-4.82,
17776,1661558124791,-1.3261,-0.0784,0.3979,-1.3,6.99,-7.64,
17777,1661558124793,-1.4057,-0.0604,0.5312,-1.71,6.06,-7.27,
17778,1661558124793,-1.3392,-0.1077,0.1225,-3.19,2.35,-11.01,
17779,1661558124794,-1.286,-0.2093,0.2284,-6.59,9.97,-8.1,
17780,1661558124794,-1.4096,-0.1815,0.5258,-8.82,14.01,-8.28,
17781,1661558124794,-1.2489,-0.1575,-0.0469,-9.47,7.59,-1.45,
17782,1661558124794,-1.2977,-0.265,0.3188,-8.89,14.52,-2.99,
17783,1661558124795,-1.1864,-0.159,0.37,-8.28,3.12,-1.9,
17784,1661558124795,-1.2201,-0.1024,0.059,-11.5,-1.72,-4.27,
17785,1661558124796,-1.2289,-0.0106,0.4789,-10.68,8.18,-2.18,
17786,1661558124796,-1.0326,0.0129,0.1772,-10.48,7.85,-3.35,
17787,1661558124797,-0.9931,0.0114,0.0932,-11.0,12.99,-0.35,
17788,1661558124797,-0.9765,0.1652,0.0663,-13.2,7.83,-1.9,
17789,1661558124798,-0.8851,0.2111,0.0087,-9.4,12.73,-1.26,
17790,1661558124798,-1.0155,0.3317,0.3471,-8.38,18.59,-3.72,
17791,1661558124798,-0.9223,0.3483,-0.2564,-1.49,9.45,-5.83,
17792,1661558124799,-0.6981,0.2985,-0.4112,-4.2,7.09,-1.08,
17793,1661558124799,-0.8661,0.3815,0.2768,-9.09,13.26,-5.28,
17794,1661558124800,-0.8349,0.2477,0.0365,-3.8,2.25,3.12,
17795,1661558124800,-0.7728,0.194,-0.2867,-1.19,0.74,1.29,
17796,1661558124801,-0.7958,0.3727,0.4662,1.71,12.17,-1.9,
17797,1661558124801,-0.8978,0.2585,0.311,4.79,0.31,-4.27,
17798,1661558124801,-0.7172,0.0231,-0.2447,4.99,7.92,-4.36,
17799,1661558124803,-0.7279,0.0627,0.1987,-1.59,10.3,-1.08,
17800,1661558124803,-0.8549,0.0177,0.0702,-0.7,7.92,-7.27,
17801,1661558124803,-0.7265,-0.0057,-0.2012,2.81,-3.06,-3.44,
17802,1661558124804,-0.7333,0.0075,0.0331,4.9,7.5,1.38,
17803,1661558124805,-0.7401,0.0402,0.2197,5.68,-0.71,2.57,
17804,1661558124805,-0.5302,-0.014,-0.2926,7.69,-3.41,0.48,
17805,1661558124806,-0.8158,-0.0418,0.0595,9.1,-3.06,2.2,
17806,1661558124806,-0.7558,0.0583,0.1601,3.6,3.96,-0.35,
17807,1661558124806,-0.4804,0.1403,-0.2711,7.89,2.84,6.76,
17808,1661558124806,-0.7084,0.029,0.1069,12.91,13.68,4.03,
17809,1661558124806,-0.7133,-0.0252,-0.2178,6.99,-20.58,2.11,
17810,1661558124807,-0.7265,0.2399,-0.3262,3.89,-28.53,1.93,
17811,1661558124807,-0.7811,0.2721,0.0873,11.8,-22.03,-0.62,
17812,1661558124809,-0.9784,0.0514,-0.1441,18.69,-7.47,0.02,
17813,1661558124809,-0.8158,0.1408,-0.0865,14.3,6.4,-1.72,
17814,1661558124810,-0.9662,0.2629,0.2079,11.09,8.43,-1.26,
17815,1661558124810,-0.8163,0.0597,-0.0855,11.4,-12.39,-2.27,
17816,1661558124811,-1.0492,0.0739,0.1449,11.0,-21.33,-1.17,
17817,1661558124811,-1.1068,0.0456,0.4203,10.19,-9.33,-4.27,
17818,1661558124812,-1.1527,0.0295,0.0834,12.59,-8.57,-1.72,
17819,1661558124812,-1.0785,-0.0701,0.0082,12.48,8.86,-0.99,
17820,1661558124812,-1.1898,-0.1634,0.3505,8.91,-0.94,-3.54,
17821,1661558124812,-1.1254,-0.137,0.0488,6.81,-7.88,-5.46,
17822,1661558124813,-1.1727,-0.2674,0.1161,7.29,-18.14,-3.17,
17823,1661558124813,-1.2553,-0.2913,0.2431,6.59,-8.31,-3.63,
17824,1661558124814,-1.0932,-0.1512,0.0082,2.99,-13.32,-3.99,
17825,1661558124814,-1.2611,-0.2811,0.0468,0.2,-3.73,-3.81,
17826,1661558124814,-1.2558,-0.3123,0.2157,-0.4,-4.94,-1.81,
17827,1661558124815,-1.3637,-0.2303,0.0199,2.79,-14.75,1.65,
17828,1661558124815,-1.4022,-0.1673,0.4482,-0.4,-8.74,-3.54,
17829,1661558124816,-1.2348,-0.1746,0.4916,-4.59,-14.73,-2.0,
17830,1661558124816,-1.3451,-0.2288,0.2568,-5.1,-3.92,-3.08,
17831,1661558124816,-1.3114,-0.1712,0.3217,-5.39,-0.03,2.38,
17832,1661558124817,-1.3685,0.0041,0.4413,-7.98,6.92,2.93,
17833,1661558124817,-1.413,0.0031,0.6108,-6.9,4.7,-2.54,
17834,1661558124818,-1.3666,0.07,0.2167,-6.8,-1.37,0.93,
17835,1661558124818,-1.1874,0.0715,0.183,-8.68,2.1,-0.99,
17836,1661558124819,-1.2992,0.1066,0.497,-7.8,7.76,-1.81,
17837,1661558124819,-1.245,0.0334,0.2118,-4.09,8.95,-4.63,
17838,1661558124821,-1.185,0.089,0.0629,-8.1,7.66,-3.63,
17839,1661558124821,-1.1791,0.1764,0.3285,-6.8,17.14,0.57,
17840,1661558124821,-1.2396,0.1437,0.4013,-6.09,10.72,-5.46,
17841,1661558124822,-1.0868,0.1134,0.124,-10.6,8.02,-2.54,
17842,1661558124822,-1.0004,0.1027,0.2494,-9.6,9.37,-5.18,
17843,1661558124823,-0.9989,0.0046,0.1225,-7.8,12.24,-3.35,
17844,1661558124823,-0.9774,-0.0155,-0.0269,-4.99,11.07,-2.09,
17845,1661558124823,-0.996,0.0217,0.0136,-7.49,20.51,-1.35,
17846,1661558124823,-1.0453,0.1027,0.1982,-9.4,9.79,-3.63,
17847,1661558124824,-0.8676,0.0187,0.0361,-7.8,7.92,-2.27,
17848,1661558124824,-0.9599,-0.036,0.0702,-5.92,3.51,-1.63,
17849,1661558124825,-0.7186,0.0417,0.0234,-4.5,9.95,-2.27,
17850,1661558124825,-0.8139,0.0417,0.0297,-3.98,8.69,-6.19,
17851,1661558124825,-0.7675,0.0954,0.2543,-4.9,15.36,-3.63,
17852,1661558124827,-0.8612,0.1105,0.1293,-4.91,1.91,0.39,
17853,1661558124827,-0.8119,0.0988,-0.0015,-5.49,3.1,3.57,
17854,1661558124827,-0.7289,0.2287,0.1406,-5.0,1.74,-1.08,
17855,1661558124827,-0.7572,0.2189,0.1664,1.19,9.62,2.38,
17856,1661558124828,-0.6786,0.2516,-0.0225,6.32,4.72,6.31,
17857,1661558124828,-0.6864,0.2438,-0.2183,5.8,3.61,0.2,
17858,1661558124828,-0.5678,0.3464,-0.0445,6.2,8.61,2.48,
17859,1661558124829,-0.7255,0.401,0.0048,3.71,2.43,2.29,
17860,1661558124829,-0.5849,0.1857,-0.3785,5.01,-0.7,1.29,
17861,1661558124830,-0.6166,0.3962,-0.1705,7.49,-0.45,1.93,
17862,1661558124830,-0.6342,0.4567,0.0175,13.11,3.19,3.85,
17863,1661558124831,-0.6879,0.2297,-0.213,12.71,-4.08,1.56,
17864,1661558124831,-0.6581,0.1139,-0.3482,12.57,3.85,0.29,
17865,1661558124832,-0.7313,0.0773,0.0175,12.1,1.59,2.66,
17866,1661558124832,-0.7377,-0.0008,-0.0792,13.81,-3.82,-2.09,
17867,1661558124833,-0.7753,-0.0457,-0.2442,11.6,-14.16,3.76,
17868,1661558124833,-0.8251,-0.1986,-0.0484,13.6,-4.68,0.84,
17869,1661558124833,-0.9813,-0.2357,-0.0006,10.79,-7.62,1.03,
17870,1661558124834,-0.9061,-0.1849,0.0341,9.49,-9.09,0.48,
17871,1661558124834,-1.0736,-0.242,0.2529,8.09,-15.68,7.4,
17872,1661558124835,-0.9843,-0.2,0.1469,8.29,-14.92,7.59,
17873,1661558124835,-1.1005,-0.2664,0.1191,7.58,-14.49,12.87,
17874,1661558124836,-1.0946,-0.3079,0.2763,4.4,-10.19,11.78,
17875,1661558124836,-1.0683,0.0016,0.2753,6.39,-13.65,6.4,
17876,1661558124837,-1.1913,-0.1082,0.204,8.79,-12.71,4.86,
17877,1661558124837,-1.1308,0.0085,0.1562,8.39,-13.48,4.4,
17878,1661558124837,-1.1063,0.0959,0.351,4.99,-3.41,3.39,
17879,1661558124838,-1.1742,0.049,0.2392,1.89,-8.83,6.4,
17880,1661558124839,-1.1561,0.0807,-0.21,3.5,-9.58,1.12,
17881,1661558124839,-1.1713,0.1882,0.2739,2.52,-3.06,-3.54,
17882,1661558124839,-1.3368,0.071,0.2612,1.28,-7.9,-0.99,
17883,1661558124840,-1.2401,0.0065,0.0107,3.1,-13.48,-3.81,
17884,1661558124840,-1.247,0.0822,0.164,0.5,-6.69,-0.99,
17885,1661558124841,-1.3358,0.1086,0.6098,-1.3,0.91,-5.83,
17886,1661558124841,-1.3143,-0.0067,0.0722,-0.69,-0.94,-4.36,
17887,1661558124842,-1.3148,-0.1141,0.3818,-0.4,9.6,-1.54,
17888,1661558124842,-1.3705,-0.1102,0.5883,-6.1,4.28,-4.54,
17889,1661558124842,-1.3812,-0.1087,0.266,-5.9,0.31,1.03,
17890,1661558124843,-1.267,-0.2586,0.2397,-5.71,5.47,-1.63,
17891,1661558124843,-1.3866,-0.2625,0.496,-5.8,8.17,0.48,
17892,1661558124844,-1.2338,-0.1824,-0.0206,-7.19,-3.82,-3.17,
17893,1661558124844,-1.2753,-0.2674,0.4106,-9.2,9.71,0.93,
17894,1661558124845,-1.3754,-0.2752,0.5737,-10.3,8.34,1.12,
17895,1661558124845,-1.0687,-0.1121,0.1283,-9.58,3.36,-2.18,
17896,1661558124846,-1.2601,-0.0262,0.3056,-13.9,3.27,1.56,
17897,1661558124846,-1.0868,-0.0374,0.5868,-13.3,6.73,0.02,
17898,1661558124847,-0.994,0.0881,0.1313,-13.2,8.09,0.93,
17899,1661558124847,-1.0141,0.1921,0.0322,-11.2,15.97,0.66,
17900,1661558124847,-0.935,0.2858,-0.0108,-8.3,13.34,-0.8,
17901,1661558124848,-0.8568,0.2682,0.225,-5.8,22.54,1.65,
17902,1661558124848,-0.9428,0.3053,-0.065,-2.39,14.27,-3.44,
17903,1661558124850,-0.7123,0.2536,-0.4498,-4.88,8.35,0.48,
17904,1661558124850,-0.8773,0.2609,0.2294,-4.39,14.01,-10.74,
17905,1661558124851,-0.9271,0.2956,0.2221,-5.49,7.83,-4.91,
17906,1661558124851,-0.7792,0.1813,-0.4361,-2.81,-4.34,-5.55,
17907,1661558124852,-0.7396,0.2502,0.1904,-1.1,9.62,-5.18,
17908,1661558124852,-0.827,0.1896,0.2543,1.8,3.51,-3.17,
17909,1661558124852,-0.6991,-0.036,-0.2203,1.01,2.52,0.66,
17910,1661558124853,-0.7396,-0.0579,-0.0421,0.0,10.79,0.84,
17911,1661558124853,-0.8217,-0.0008,0.3608,0.61,16.82,-1.72,
17912,1661558124854,-0.7958,0.0036,-0.1749,-0.2,1.49,-2.64,
17913,1661558124854,-0.7382,0.0197,0.0356,4.52,2.43,1.93,
17914,1661558124855,-0.8129,-0.0311,0.3637,4.21,-1.2,5.66,
17915,1661558124855,-0.6625,-0.0902,-0.0753,5.4,-7.38,3.85,
17916,1661558124856,-0.6503,-0.0291,-0.316,7.62,-1.29,6.03,
17917,1661558124856,-0.7138,0.1139,0.0356,6.21,8.78,7.59,
17918,1661558124856,-0.6747,0.1442,-0.3106,2.7,8.5,6.21,
17919,1661558124856,-0.5595,0.1969,-0.3394,6.29,11.72,5.04,
17920,1661558124856,-0.704,-0.0321,0.0331,6.7,-0.94,7.13,
17921,1661558124857,-0.6879,0.0944,-0.2833,5.39,-21.77,9.31,
17922,1661558124857,-0.8378,0.3376,0.2787,9.31,-23.87,2.38,
17923,1661558124858,-0.8563,0.2873,0.2328,13.2,-26.76,1.83,
17924,1661558124858,-0.6684,-0.0203,-0.2398,16.89,1.24,3.76,
17925,1661558124859,-0.8695,0.2531,0.2524,13.79,10.05,-1.17,
17926,1661558124859,-1.0101,0.1545,0.1879,9.89,0.72,1.93,
17927,1661558124859,-0.9892,0.0641,-0.1163,7.2,-11.1,3.67,
17928,1661558124860,-1.0639,0.1047,0.2035,11.49,-4.85,6.49,
17929,1661558124860,-1.1059,0.0055,0.3949,13.5,-16.34,0.48,
17930,1661558124861,-0.996,0.0392,-0.232,12.3,-11.19,1.29,
17931,1661558124861,-1.0795,-0.0643,0.2577,8.99,-2.48,2.48,
17932,1661558124862,-1.246,-0.203,0.2079,6.71,-6.95,-0.44,
17933,1661558124862,-1.1601,-0.2347,0.1025,4.59,-8.48,2.93,
17934,1661558124863,-1.2025,-0.2078,0.2358,5.71,-9.15,4.12,
17935,1661558124863,-1.2123,-0.0794,0.2782,3.82,-10.25,-0.71,
17936,1661558124864,-1.0565,-0.0838,-0.0269,2.02,-12.71,0.84,
17937,1661558124864,-1.2919,-0.3397,0.3227,-0.2,-3.25,3.3,
17938,1661558124866,-1.1688,-0.2415,0.1645,1.71,-7.72,2.29,
17939,1661558124866,-1.411,-0.2039,0.101,-0.79,-8.72,1.47,
17940,1661558124866,-1.391,-0.1385,0.435,-2.2,-6.04,-1.9,
17941,1661558124866,-1.3236,-0.0765,0.2387,-4.9,-6.63,-2.64,
17942,1661558124866,-1.2885,-0.095,0.1801,-3.4,3.1,-6.01,
17943,1661558124867,-1.3402,-0.0301,0.1586,-4.49,-2.56,-1.35,
17944,1661558124867,-1.2421,0.0905,0.5263,-5.2,7.57,-7.0,
17945,1661558124869,-1.4608,0.068,0.5971,-3.71,4.54,-5.18,
17946,1661558124869,-1.39,0.0358,0.1401,-5.51,0.31,-0.8,
17947,1661558124870,-1.2772,0.1745,0.3569,-4.88,5.22,-4.27,
17948,1661558124870,-1.3056,0.2013,0.5976,-7.8,16.3,-7.18,
17949,1661558124871,-1.1747,0.0378,-0.0225,-8.5,12.4,-8.83,
17950,1661558124871,-1.1439,0.0353,0.0258,-7.08,21.98,-5.0,
17951,1661558124871,-1.1771,0.1637,0.6318,-8.7,17.75,-6.19,
17952,1661558124872,-1.1552,0.0817,0.1503,-11.2,8.09,-6.28,
17953,1661558124872,-1.0263,0.05,0.0365,-10.3,11.31,-7.55,
17954,1661558124873,-0.9926,0.0441,0.2167,-10.89,16.3,-3.99,
17955,1661558124873,-0.9447,0.0036,-0.13,-5.89,12.67,-3.99,
17956,1661558124874,-0.9403,-0.0301,-0.0792,-7.4,9.44,-5.73,
17957,1661558124874,-0.9887,-0.0242,0.0727,-9.2,5.71,-4.91,
17958,1661558124874,-0.8309,0.0207,0.0312,-8.59,8.52,-3.9,
17959,1661558124874,-1.0009,-0.1146,0.081,-8.1,9.69,0.57,
17960,1661558124875,-0.8515,-0.056,0.1108,-5.8,15.29,1.03,
17961,1661558124875,-0.8895,0.0119,-0.0611,-5.98,2.77,1.38,
17962,1661558124875,-0.7807,0.0793,0.0624,-2.3,12.67,-1.35,
17963,1661558124876,-0.7855,0.0495,0.2895,0.5,11.65,5.48,
17964,1661558124876,-0.7426,-0.0228,0.0156,-2.39,13.51,0.48,
17965,1661558124877,-0.6293,0.1672,0.0585,-6.7,7.34,4.03,
17966,1661558124877,-0.7255,0.2507,0.1039,-8.38,-0.03,2.75,
17967,1661558124878,-0.6659,0.1398,0.1113,-3.8,-0.61,-1.63,
17968,1661558124878,-0.7064,0.1862,-0.212,4.4,0.98,-1.35,
17969,1661558124879,-0.5839,0.3415,-0.1383,8.59,6.41,-0.62,
17970,1661558124879,-0.7518,0.4059,0.0868,7.69,7.25,-1.72,
17971,1661558124879,-0.6713,0.3503,-0.0616,3.8,2.51,-3.63,
17972,1661558124880,-0.6259,0.2389,-0.359,2.99,-5.03,-1.63,
17973,1661558124880,-0.6322,0.4284,0.0165,6.32,0.4,1.47,
17974,1661558124881,-0.685,0.2165,-0.0899,12.8,-6.02,-1.54,
17975,1661558124881,-0.6732,0.1554,-0.398,13.22,-7.62,-1.08,
17976,1661558124882,-0.7025,0.1598,-0.2188,12.09,-1.55,2.38,
17977,1661558124882,-0.7963,-0.0228,0.0273,9.4,-3.23,3.3,
17978,1661558124883,-0.8104,-0.0218,-0.2086,9.87,-10.52,-3.81,
17979,1661558124883,-0.8139,-0.1087,-0.1392,12.3,-14.84,0.93,
17980,1661558124884,-1.0009,-0.1942,0.0678,9.98,-12.8,6.58,
17981,1661558124884,-0.8993,-0.1898,0.0512,12.3,-8.49,5.76,
17982,1661558124884,-0.9359,-0.2288,0.1205,8.0,-8.05,4.31,
17983,1661558124885,-0.9726,-0.0838,0.3525,8.32,-8.56,2.29,
17984,1661558124885,-1.1181,-0.284,0.2026,5.89,-15.59,5.48,
17985,1661558124886,-1.1107,-0.2406,0.2465,4.59,-14.57,6.03,
17986,1661558124886,-1.1225,0.0607,0.3505,6.3,-13.48,4.03,
17987,1661558124887,-1.1981,-0.0282,0.2563,8.52,-6.53,3.76,
17988,1661558124887,-1.1371,-0.1258,0.1005,4.7,-3.08,-2.27,
17989,1661558124888,-1.1928,0.0968,0.266,1.69,2.34,-0.53,
17990,1661558124888,-1.183,0.0402,0.1371,2.9,-5.03,1.29,
17991,1661558124889,-1.1601,-0.0296,-0.1324,1.71,-12.54,-7.0,
17992,1661558124889,-1.0956,0.1657,0.0297,3.1,-7.4,0.29,
17993,1661558124889,-1.3031,0.1926,0.3813,4.3,-7.12,-3.54,
17994,1661558124891,-1.2426,0.0475,-0.0489,1.21,-5.18,-3.17,
17995,1661558124891,-1.2724,0.0426,0.2094,2.59,-3.4,-3.08,
17996,1661558124891,-1.3275,0.1022,0.5663,-2.18,4.05,-7.0,
17997,1661558124891,-1.3436,0.0304,0.33,0.31,-3.06,-1.08,
17998,1661558124892,-1.2953,-0.1556,0.0815,-2.49,4.89,-7.37,
17999,1661558124892,-1.3768,-0.0897,0.5995,-2.1,7.09,-5.37,
18000,1661558124893,-1.432,-0.1541,0.3705,-3.58,4.12,-6.73,
18001,1661558124893,-1.2675,-0.2996,0.2255,-4.0,4.54,-3.99,
18002,1661558124895,-1.3056,-0.2279,0.4159,-8.89,13.43,-0.8,
18003,1661558124895,-1.3764,-0.1463,0.3295,-10.99,0.4,-7.0,
18004,1661558124895,-1.1493,-0.1951,0.1161,-8.62,6.47,0.66,
18005,1661558124895,-1.2816,-0.2186,0.4047,-10.7,6.4,-4.18,
18006,1661558124895,-1.0814,-0.0579,0.124,-13.59,3.27,2.11,
18007,1661558124896,-1.2465,0.0334,0.3813,-10.5,7.92,-0.26,
18008,1661558124896,-1.2313,0.0368,0.5365,-11.78,13.68,0.11,
18009,1661558124897,-1.0473,0.11,0.1772,-11.72,10.79,1.03,
18010,1661558124897,-0.973,0.2404,0.1186,-12.68,17.57,-5.92,
18011,1661558124899,-0.9516,0.28,0.0951,-11.38,9.21,-5.73,
18012,1661558124899,-0.83,0.256,0.122,-7.78,16.39,-4.91,
18013,1661558124899,-0.9594,0.3361,0.0556,-7.09,14.94,-0.62,
18014,1661558124900,-0.9428,0.3757,-0.1436,-4.32,12.32,-8.37,
18015,1661558124900,-0.7899,0.2717,-0.0147,-4.3,16.55,-5.83,
18016,1661558124900,-0.8798,0.2536,0.1733,-2.99,13.77,-10.74,
18017,1661558124901,-0.8143,0.1432,-0.3106,-4.9,1.0,-4.54,
18018,1661558124901,-0.7572,0.2341,0.1225,-2.9,7.57,-10.56,
18019,1661558124901,-0.8222,0.132,0.2236,1.4,5.71,-5.92,
18020,1661558124902,-0.7977,-0.0008,-0.1158,3.21,3.96,-0.44,
18021,1661558124902,-0.7367,-0.0662,-0.1666,0.72,9.21,-0.35,
18022,1661558124903,-0.807,-0.0467,0.2743,-0.4,12.99,3.12,
18023,1661558124903,-0.8178,-0.0433,-0.1402,1.79,-1.64,2.66,
18024,1661558124905,-0.6859,-0.0111,0.0185,2.11,-0.44,1.83,
18025,1661558124905,-0.8212,-0.0535,0.2914,2.61,0.74,3.48,
18026,1661558124905,-0.6698,-0.0721,0.0615,5.1,-4.5,9.68,
18027,1661558124906,-0.6986,-0.0047,-0.2613,7.69,-1.89,8.96,
18028,1661558124906,-0.6327,0.1266,0.0087,4.4,10.63,8.96,
18029,1661558124906,-0.3534,0.2013,-0.1265,4.5,6.06,3.48,
18030,1661558124906,-0.622,0.1706,-0.0474,7.69,10.37,7.04,
18031,1661558124907,-0.6786,-0.0501,-0.0958,8.41,-12.78,6.76,
18032,1661558124907,-0.643,0.1984,-0.4249,6.5,-26.68,2.02,
18033,1661558124907,-0.8148,0.321,0.2641,14.37,-4.6,2.84,
18034,1661558124910,-0.9013,0.1676,-0.004,15.69,-6.88,-1.81,
18035,1661558124910,-0.6654,0.0309,-0.4595,9.0,7.76,2.38,
18036,1661558124910,-0.9101,0.2843,0.2992,4.3,6.25,-1.9,
18037,1661558124910,-0.9823,0.0983,0.1371,4.52,-1.37,-0.62,
18038,1661558124910,-0.9677,0.0715,-0.17,8.77,-21.01,1.74,
18039,1661558124910,-1.0087,0.1408,0.225,13.87,-4.18,-1.17,
18040,1661558124912,-1.1005,0.0343,0.3803,11.6,-10.94,-3.54,
18041,1661558124912,-1.0209,-0.0614,-0.2154,8.79,-5.85,-7.46,
18042,1661558124912,-1.0858,-0.0516,0.3188,4.99,-4.18,-6.19,
18043,1661558124912,-1.2309,-0.1156,0.1323,5.69,-11.12,-2.9,
18044,1661558124913,-1.1469,-0.2425,0.0414,11.29,-8.92,-0.8,
18045,1661558124913,-1.2186,-0.2166,0.2328,8.71,-1.7,-0.53,
18046,1661558124913,-1.2001,-0.0286,0.2997,-2.09,-13.47,-4.73,
18047,1661558124914,-1.1102,-0.0931,-0.1656,-1.28,-15.16,-1.35,
18048,1661558124914,-1.309,-0.3255,0.3227,6.21,-3.15,0.11,
18049,1661558124915,-1.1483,-0.1131,0.1806,0.99,-8.49,2.66,
18050,1661558124915,-1.3715,-0.1317,0.1357,-6.18,-10.51,-2.36,
18051,1661558124916,-1.2333,-0.1151,0.4653,-4.49,-5.35,-2.09,
18052,1661558124916,-1.2968,-0.0428,0.3427,-2.5,-5.53,-3.44,
18053,1661558124917,-1.3129,-0.0135,0.2289,-1.49,-0.12,-2.09,
18054,1661558124917,-1.3651,0.0177,0.1288,-4.68,-5.02,-1.26,
18055,1661558124918,-1.2543,0.1354,0.6567,-9.49,10.12,-1.72,
18056,1661558124918,-1.4242,0.0959,0.4238,-7.4,5.91,-6.37,
18057,1661558124919,-1.1815,0.0744,-0.0128,-3.8,2.0,-3.54,
18058,1661558124919,-1.2494,0.1633,0.2685,-6.88,9.88,-2.8,
18059,1661558124920,-1.3373,0.2106,0.725,-6.39,14.09,1.19,
18060,1661558124920,-1.1845,0.1423,-0.0611,-7.49,5.54,-2.0,
18061,1661558124920,-1.1713,0.1501,0.2787,-8.99,16.47,-1.9,
18062,1661558124921,-1.2265,0.1169,0.5341,-8.12,7.92,-2.18,
18063,1661558124921,-1.184,0.1037,0.2182,-5.89,7.18,-5.73,
18064,1661558124922,-1.0341,0.0055,-0.0645,-5.58,14.03,-5.37,
18065,1661558124922,-0.9823,-0.0545,0.1806,-5.71,21.29,-6.91,
18066,1661558124923,-0.9779,-0.0267,-0.0172,-8.82,10.53,-6.47,
18067,1661558124923,-1.0116,-0.0252,0.0448,-7.6,5.3,-5.64,
18068,1661558124924,-1.0219,-0.0242,0.2055,-6.09,4.55,-2.8,
18069,1661558124924,-0.8563,-0.1087,0.0278,-8.1,3.19,-0.62,
18070,1661558124924,-0.9955,-0.1375,0.1078,-7.51,8.26,-1.9,
18071,1661558124925,-0.8114,-0.0277,0.1611,-5.0,9.53,1.47,
18072,1661558124925,-0.9501,0.0158,-0.0909,-3.39,4.22,0.11,
18073,1661558124927,-0.9823,0.0431,0.2753,-4.39,7.57,-2.18,
18074,1661558124927,-0.8773,-0.0106,0.0312,-4.91,-6.88,-2.45,
18075,1661558124927,-0.7514,-0.036,-0.0406,-2.39,5.47,-1.45,
18076,1661558124927,-0.6561,0.1545,-0.0103,-0.49,16.13,1.93,
18077,1661558124929,-0.683,0.2057,0.0297,-2.0,16.71,3.3,
18078,1661558124929,-0.663,0.2487,-0.1241,2.99,6.31,3.39,
18079,1661558124929,-0.6478,0.2262,-0.2598,3.6,-4.34,6.95,
18080,1661558124929,-0.6093,0.2858,-0.1207,4.4,-1.72,2.29,
18081,1661558124929,-0.7504,0.4098,0.0883,4.91,-2.39,3.85,
18082,1661558124932,-0.5932,0.1139,-0.3018,6.99,-3.32,8.59,
18083,1661558124932,-0.5434,0.3215,-0.1715,8.01,-2.8,7.13,
18084,1661558124932,-0.6044,0.4504,0.0483,9.42,5.65,4.76,
18085,1661558124932,-0.6908,0.2438,-0.1485,13.2,0.89,4.67,
18086,1661558124932,-0.7084,0.0788,-0.3941,12.7,-0.45,0.2,
18087,1661558124932,-0.725,-0.0238,0.0029,10.0,-2.57,1.83,
18088,1661558124933,-0.8441,-0.0516,-0.1763,9.6,-6.69,2.38,
18089,1661558124933,-0.7523,0.0041,-0.338,8.99,-14.08,-1.08,
18090,1661558124933,-0.8192,-0.1287,-0.0592,9.89,-6.53,2.66,
18091,1661558124934,-1.0243,-0.1741,0.1391,9.49,-13.21,3.76,
18092,1661558124934,-0.7865,-0.1805,-0.1441,8.7,-20.82,3.21,
18093,1661558124935,-1.0482,-0.1688,0.2753,7.6,-29.72,2.84,
18094,1661558124935,-1.0175,-0.097,0.391,5.69,-13.97,4.22,
18095,1661558124936,-1.098,-0.1507,0.0175,9.6,-13.13,8.41,
18096,1661558124936,-1.1,-0.056,0.2231,9.61,9.37,6.85,
18097,1661558124937,-1.1561,0.0705,0.519,9.1,2.17,8.5,
18098,1661558124937,-1.0653,-0.0565,-0.0108,8.41,-1.8,5.21,
18099,1661558124937,-1.1215,0.0485,-0.0494,2.81,-19.05,2.75,
18100,1661558124938,-1.2357,0.0519,0.3886,6.21,-12.11,3.57,
18101,1661558124938,-1.1527,0.0065,0.1142,6.0,-11.52,4.49,
18102,1661558124939,-1.2064,0.2492,-0.2515,6.52,-5.18,2.66,
18103,1661558124939,-1.2689,0.2038,0.3051,3.21,1.33,0.29,
18104,1661558124940,-1.288,0.111,0.3813,1.21,-0.86,-2.0,
18105,1661558124940,-1.2387,0.0656,0.0668,-1.3,-5.2,-1.9,
18106,1661558124941,-1.2704,0.0724,0.1987,1.62,-7.72,-5.0,
18107,1661558124941,-1.3222,0.0788,0.4242,2.5,-3.58,-9.56,
18108,1661558124941,-1.3202,0.0036,0.3271,1.1,-2.22,-4.36,
18109,1661558124942,-1.3358,-0.1087,0.2045,0.29,8.18,-5.55,
18110,1661558124942,-1.3759,-0.0535,0.4584,-0.5,14.26,-10.02,
18111,1661558124943,-1.4501,-0.2279,0.3852,-2.79,7.25,-1.45,
18112,1661558124943,-1.2475,-0.2025,0.2363,-6.7,3.18,-4.27,
18113,1661558124945,-1.4184,-0.2166,0.3222,-7.99,1.76,1.56,
18114,1661558124945,-1.3842,-0.2323,0.2382,-7.9,-0.94,-5.92,
18115,1661558124945,-1.1513,-0.221,0.2143,-10.38,13.1,-0.9,
18116,1661558124945,-1.2631,-0.0477,0.4203,-9.58,11.07,-4.63,
18117,1661558124946,-1.1112,-0.0355,0.1352,-7.4,6.4,1.38,
18118,1661558124946,-1.1918,0.0007,0.455,-10.89,11.05,2.66,
18119,1661558124947,-1.0766,0.0549,0.3715,-11.2,6.57,0.02,
18120,1661558124947,-1.0746,0.1603,0.0824,-13.18,2.35,4.4,
18121,1661558124947,-0.9589,0.2463,0.081,-9.09,14.42,-1.26,
18122,1661558124948,-0.9745,0.3527,0.1196,-5.0,12.49,2.38,
18123,1661558124948,-0.8251,0.34,-0.0596,-2.39,17.57,-2.8,
18124,1661558124949,-0.9047,0.2575,-0.0538,-2.7,18.65,1.74,
18125,1661558124949,-0.8944,0.2717,-0.0787,-2.72,10.7,2.2,
18126,1661558124950,-0.7577,0.3288,-0.023,-6.3,6.15,-2.09,
18127,1661558124950,-0.8295,0.3127,0.0258,-3.08,4.8,-4.91,
18128,1661558124951,-0.7802,0.132,-0.2296,-1.71,0.14,-2.8,
18129,1661558124951,-0.7421,0.2355,0.1938,0.11,11.14,-5.18,
18130,1661558124951,-0.7748,0.2311,0.3202,0.2,11.82,-3.54,
18131,1661558124952,-0.8041,-0.0433,-0.1568,4.81,3.96,-3.9,
18132,1661558124952,-0.7977,-0.0794,0.0356,0.92,4.8,-3.81,
18133,1661558124953,-0.8178,0.0402,0.4067,1.42,10.21,-0.99,
18134,1661558124953,-0.7597,-0.0477,-0.2276,4.2,1.41,3.85,
18135,1661558124954,-0.6503,-0.1185,-0.3228,3.21,-0.19,1.83,
18136,1661558124954,-0.7831,-0.1033,0.2797,4.52,1.42,2.2,
18137,1661558124955,-0.6054,-0.0384,0.0746,5.89,-1.96,3.21,
18138,1661558124955,-0.7206,-0.0072,-0.3287,6.21,-5.35,6.58,
18139,1661558124955,-0.4887,0.1559,-0.0972,5.8,0.89,7.95,
18140,1661558124956,-0.4843,0.2375,-0.1075,4.69,-10.36,5.48,
18141,1661558124956,-0.7294,0.1271,-0.0933,5.68,-9.26,5.85,
18142,1661558124957,-0.6552,-0.182,-0.3834,9.49,-22.59,7.59,
18143,1661558124957,-0.6576,0.2609,-0.2315,17.09,-11.36,1.56,
18144,1661558124959,-0.872,0.3698,0.2763,20.1,9.88,3.39,
18145,1661558124959,-0.8842,0.111,-0.1422,12.59,-1.48,5.39,
18146,1661558124959,-0.622,0.0426,-0.4122,6.39,-8.16,6.67,
18147,1661558124959,-0.9491,0.3083,0.4726,5.71,-8.81,2.02,
18148,1661558124959,-0.9677,0.0046,-0.0245,11.41,-24.12,-1.45,
18149,1661558124961,-1.0175,0.0036,-0.0167,16.01,-17.27,-1.9,
18150,1661558124961,-1.0873,0.0842,0.4501,17.29,7.66,1.19,
18151,1661558124961,-1.1127,0.0319,0.2538,13.4,-3.25,1.74,
18152,1661558124962,-0.9618,-0.1019,-0.2867,10.5,-1.8,3.03,
18153,1661558124962,-1.0863,-0.099,0.3989,7.31,-9.07,0.84,
18154,1661558124962,-1.2147,-0.0657,0.0673,7.49,-18.79,1.12,
18155,1661558124963,-1.1596,-0.1624,-0.0797,12.3,-16.09,6.49,
18156,1661558124963,-1.2245,-0.3167,0.3251,10.19,1.41,8.87,
18157,1661558124964,-1.1664,-0.0111,0.1796,-1.08,-7.79,3.76,
18158,1661558124964,-1.1039,-0.1214,-0.3238,-2.41,-14.84,2.57,
18159,1661558124965,-1.3583,-0.3685,0.4316,-1.22,-11.45,4.67,
18160,1661558124965,-1.2035,-0.1126,0.2753,2.9,-19.24,6.49,
18161,1661558124966,-1.3808,-0.056,0.1069,3.4,-10.77,3.57,
18162,1661558124966,-1.3705,-0.0555,0.3744,-2.58,2.35,1.47,
18163,1661558124966,-1.3563,0.0085,0.4365,-6.1,0.31,2.2,
18164,1661558124968,-1.3075,0.0007,0.2035,-8.1,0.39,1.29,
18165,1661558124968,-1.3749,0.1061,0.1093,-5.2,-9.17,1.03,
18166,1661558124969,-1.3373,0.0822,0.4047,-2.09,0.66,3.76,
18167,1661558124969,-1.5097,0.1569,0.7319,-1.39,-1.7,0.57,
18168,1661558124970,-1.3324,0.1628,0.0292,-5.9,3.03,-1.17,
18169,1661558124970,-1.2323,0.1384,0.2646,-3.6,8.5,-1.72,
18170,1661558124970,-1.3109,0.1222,0.6532,-5.58,18.33,-8.19,
18171,1661558124971,-1.2592,0.1344,0.3539,-7.09,3.45,-9.47,
18172,1661558124971,-1.1278,0.1198,-0.0216,-6.68,11.65,-4.73,
18173,1661558124971,-1.1259,0.0983,0.5815,-4.7,17.75,-8.19,
18174,1661558124971,-1.1688,0.03,0.0829,-6.12,7.74,-4.45,
18175,1661558124972,-1.0663,0.0578,0.0102,-7.7,6.66,-5.28,
18176,1661558124972,-1.0009,0.0529,0.2255,-8.7,12.41,-2.99,
18177,1661558124972,-1.0297,-0.0413,0.1147,-4.38,11.57,-2.9,
18178,1661558124973,-0.9105,-0.0199,-0.1632,-7.29,11.13,-6.91,
18179,1661558124974,-1.0258,-0.0736,0.1742,-8.7,9.21,-1.54,
18180,1661558124974,-0.7753,-0.0775,0.0615,-7.2,3.35,-4.73,
18181,1661558124975,-0.9335,-0.0272,0.0912,-3.4,6.81,1.29,
18182,1661558124975,-0.9281,-0.0037,0.2035,-3.4,14.27,-1.08,
18183,1661558124975,-0.7953,0.0353,-0.0103,-6.99,2.77,2.11,
18184,1661558124976,-0.9242,0.0041,0.144,-8.61,4.12,4.49,
18185,1661558124976,-0.7948,0.0094,0.1366,-5.9,-7.73,5.85,
18186,1661558124977,-0.7186,0.0876,-0.0181,0.79,2.75,6.31,
18187,1661558124977,-0.7694,0.2018,0.0341,3.31,8.69,2.02,
18188,1661558124978,-0.7514,0.2472,0.0458,1.1,15.45,5.85,
18189,1661558124978,-0.577,0.2477,-0.0723,-0.12,16.62,1.38,
18190,1661558124978,-0.6366,0.2087,-0.1339,1.18,9.44,2.93,
18191,1661558124979,-0.6747,0.2468,-0.2281,4.01,1.33,8.14,
18192,1661558124979,-0.7162,0.4592,0.0673,3.4,-0.53,-0.07,
18193,1661558124981,-0.5956,0.3346,-0.1251,7.51,-2.73,4.22,
18194,1661558124981,-0.5795,0.1759,-0.4986,10.38,-8.23,6.85,
18195,1661558124982,-0.5033,0.2887,-0.338,11.89,5.97,2.02,
18196,1661558124982,-0.6303,0.3122,0.0849,11.49,5.06,0.75,
18197,1661558124982,-0.6674,0.1017,-0.3531,12.71,-3.15,-1.72,
18198,1661558124982,-0.7352,-0.0448,-0.255,12.39,-10.95,0.66,
18199,1661558124983,-0.8007,-0.0955,0.1313,15.29,-4.18,1.19,
18200,1661558124983,-0.8407,-0.0448,-0.0299,12.51,-11.18,1.83,
18201,1661558124984,-0.7226,-0.0594,-0.359,12.7,-8.74,5.3,
18202,1661558124984,-1.0141,-0.2318,0.123,10.3,-13.8,5.04,
18203,1661558124984,-0.9203,-0.1595,0.1054,10.39,-16.43,9.4,
18204,1661558124985,-1.1195,-0.1922,0.0033,12.5,-23.46,11.97,
18205,1661558124985,-1.1249,-0.182,0.391,7.42,-18.53,9.68,
18206,1661558124986,-1.0492,-0.1151,-0.0552,8.19,-28.19,10.41,
18207,1661558124987,-1.1171,-0.0155,0.2875,11.22,0.33,10.04,
18208,1661558124988,-1.0932,-0.0218,0.4384,10.09,-0.61,13.32,
18209,1661558124988,-1.1434,-0.0872,0.1386,5.19,-6.95,9.31,
18210,1661558124989,-1.1054,0.1589,0.1406,5.1,-18.38,13.6,
18211,1661558124989,-1.2089,0.0295,0.2612,5.6,-12.46,8.96,
18212,1661558124989,-1.0839,0.0114,0.0566,9.49,-9.42,5.76,
18213,1661558124990,-1.1532,0.1252,-0.0811,6.1,-6.79,4.4,
18214,1661558124990,-1.1708,0.1305,0.058,2.88,-2.74,2.75,
18215,1661558124991,-1.288,0.0837,0.1698,2.02,-6.19,3.21,
18216,1661558124991,-1.3051,0.0588,0.3119,4.79,-0.96,4.03,
18217,1661558124992,-1.3749,0.0656,0.2573,3.11,-4.16,-1.17,
18218,1661558124992,-1.2885,0.1359,0.1313,1.3,-4.76,1.29,
18219,1661558124993,-1.3143,-0.0833,0.3676,0.4,-5.44,2.75,
18220,1661558124993,-1.3866,-0.1151,0.4072,-1.2,-1.55,-0.44,
18221,1661558124993,-1.3612,-0.0677,0.2284,-2.0,-1.7,-0.07,
18222,1661558124994,-1.4662,-0.179,0.329,-4.39,11.72,-3.54,
18223,1661558124994,-1.3222,-0.2225,0.4198,-4.62,7.33,4.4,
18224,1661558124995,-1.3231,-0.0843,0.2118,-8.09,5.15,3.48,
18225,1661558124995,-1.3734,-0.2025,0.2626,-6.99,2.19,5.48,
18226,1661558124996,-1.1879,-0.2137,0.2983,-9.08,-1.96,3.67,
18227,1661558124996,-1.3417,-0.1663,0.4369,-11.49,3.19,1.38,
18228,1661558124997,-1.184,-0.0496,0.3007,-9.58,3.03,4.95,
18229,1661558124997,-1.2299,0.0051,0.0986,-9.89,5.91,2.11,
18230,1661558124997,-1.1933,0.113,0.5873,-9.09,19.84,-2.0,
18231,1661558124998,-1.0722,0.1711,0.0595,-7.99,10.63,-0.9,
18232,1661558124998,-0.8925,0.1467,-0.0928,-10.51,18.91,0.02,
18233,1661558124999,-0.9994,0.3053,0.1865,-9.2,12.91,1.56,
18234,1661558124999,-0.8739,0.3049,0.0019,-5.08,11.4,-3.99,
18235,1661558125000,-0.9184,0.3141,0.0082,-3.01,9.54,1.19,
18236,1661558125000,-0.9296,0.2555,0.0805,-1.31,12.06,-3.17,
18237,1661558125001,-0.7675,0.1613,-0.0616,-2.59,3.68,-0.62,
18238,1661558125001,-0.7909,0.2883,-0.0386,-4.5,12.65,-5.09,
18239,1661558125002,-0.7704,0.2204,0.0204,-0.49,8.52,-4.82,
18240,1661558125002,-0.7182,0.1281,-0.148,0.61,3.45,1.93,
18241,1661558125002,-0.8173,0.154,0.2841,2.81,9.04,1.74,
18242,1661558125003,-0.8681,0.0651,0.2929,2.4,3.44,1.03,
18243,1661558125003,-0.7675,-0.1229,-0.1202,1.1,4.37,2.2,
18244,1661558125003,-0.6625,-0.0164,0.0898,-0.59,8.6,2.66,
18245,1661558125003,-0.8349,0.009,0.1469,1.01,6.66,0.29,
18246,1661558125004,-0.7855,0.0221,-0.0802,3.79,-4.51,3.21,
18247,1661558125004,-0.6469,-0.0545,-0.0972,6.09,-1.96,3.85,
18248,1661558125005,-0.7846,-0.0911,0.2675,6.61,4.89,8.87,
18249,1661558125005,-0.6571,0.0314,-0.1544,4.09,2.84,6.21,
18250,1661558125006,-0.6503,0.0402,-0.3868,5.49,-5.43,11.88,
18251,1661558125006,-0.5018,0.1764,-0.233,5.62,-5.26,9.86,
18252,1661558125006,-0.7186,0.2868,0.0903,7.31,-11.52,6.67,
18253,1661558125007,-0.7792,-0.0496,-0.2095,12.3,-10.42,7.04,
18254,1661558125007,-0.7089,0.1012,-0.4488,15.5,-17.02,6.58,
18255,1661558125008,-0.6596,0.2824,-0.0235,15.89,7.94,6.95,
18256,1661558125008,-0.8881,0.2843,0.2289,14.59,-3.41,9.22,
18257,1661558125009,-0.7479,0.05,-0.5792,9.89,-8.57,10.32,
18258,1661558125009,-0.8344,0.3068,0.1591,7.69,-11.62,6.21,
18259,1661558125009,-1.0038,0.2111,0.3202,10.99,-9.33,2.84,
18260,1661558125011,-0.9467,0.0031,-0.1568,17.87,-12.63,3.94,
18261,1661558125011,-0.995,-0.012,-0.0406,17.4,3.61,-1.72,
18262,1661558125011,-1.1176,0.1335,0.517,13.49,-4.6,-1.9,
18263,1661558125011,-1.0678,-0.0174,-0.314,10.71,-19.47,-0.9,
18264,1661558125012,-1.058,-0.0843,0.1601,11.61,-3.57,4.49,
18265,1661558125012,-1.2533,-0.0838,0.3447,14.1,-2.99,4.03,
18266,1661558125013,-1.185,-0.2401,-0.0811,9.89,-13.48,0.75,
18267,1661558125013,-1.1601,-0.3001,0.1196,4.59,-13.06,3.21,
18268,1661558125014,-1.2968,-0.1292,0.4535,4.2,-13.64,-1.54,
18269,1661558125014,-1.0541,-0.0252,-0.2081,3.62,-15.83,1.03,
18270,1661558125015,-1.2963,-0.3397,0.0239,3.3,-1.55,5.57,
18271,1661558125015,-1.3212,-0.221,0.4418,1.71,-3.15,0.75,
18272,1661558125015,-1.4667,-0.057,0.0678,1.1,-16.28,-0.9,
18273,1661558125016,-1.3681,-0.0565,0.1777,3.1,-10.95,0.02,
18274,1661558125016,-1.268,-0.0863,0.3691,-1.49,-13.73,-2.71,
18275,1661558125017,-1.268,-0.0199,0.2016,-3.39,-0.53,-2.54,
18276,1661558125018,-1.3417,0.0119,0.2289,-5.39,1.84,-4.09,
18277,1661558125018,-1.3217,0.071,0.4609,-2.9,7.24,-0.62,
18278,1661558125018,-1.476,0.1711,0.5995,-2.0,5.3,-2.9,
18279,1661558125019,-1.4105,0.1857,0.3461,-3.98,-0.86,0.29,
18280,1661558125019,-1.1718,0.0895,0.08,-7.29,4.61,-2.0,
18281,1661558125020,-1.3163,0.1491,0.5214,-5.29,12.5,-4.36,
18282,1661558125020,-1.2807,0.1354,0.2416,-4.7,11.46,-1.54,
18283,1661558125021,-1.1444,0.1496,0.1698,-7.4,11.74,-6.73,
18284,1661558125021,-1.1268,0.1681,0.3901,-7.8,18.07,0.57,
18285,1661558125021,-1.1376,0.0431,0.207,-6.8,9.86,-2.0,
18286,1661558125022,-1.0756,0.0207,-0.0123,-5.08,9.62,-1.63,
18287,1661558125022,-1.0267,0.0002,0.3359,-7.2,7.74,-3.08,
18288,1661558125023,-1.0687,-0.0321,0.1347,-10.89,4.78,-0.99,
18289,1661558125023,-0.994,-0.0072,-0.0855,-9.89,0.4,-1.81,
18290,1661558125024,-1.0155,-0.0208,0.0942,-5.0,14.52,-2.36,
18291,1661558125024,-0.9872,-0.0311,0.2651,-2.7,14.94,-0.26,
18292,1661558125026,-0.9096,-0.0623,-0.0557,-6.51,5.04,1.56,
18293,1661558125026,-0.9184,0.0436,0.162,-6.59,6.41,2.2,
18294,1661558125026,-0.7123,0.0998,-0.1046,-4.0,-3.57,2.57,
18295,1661558125026,-0.8251,0.0217,-0.0509,-3.2,5.47,3.76,
18296,1661558125027,-0.8651,0.0397,0.2563,-3.02,9.1,-0.16,
18297,1661558125028,-0.8256,0.1066,-0.0006,-2.2,7.16,1.12,
18298,1661558125028,-0.7357,0.2697,0.0409,-0.4,9.86,0.02,
18299,1661558125028,-0.7157,0.2267,0.079,0.99,6.32,2.93,
18300,1661558125028,-0.5824,0.2336,-0.0191,-0.3,9.27,1.56,
18301,1661558125029,-0.6727,0.2843,-0.0264,2.4,6.57,6.4,
18302,1661558125029,-0.6947,0.1945,-0.0977,5.31,-0.1,5.21,
18303,1661558125030,-0.6762,0.2018,-0.002,3.1,-1.22,4.4,
18304,1661558125030,-0.6771,0.3683,0.1596,7.1,1.58,3.21,
18305,1661558125030,-0.5951,0.2258,-0.4102,6.99,-5.09,2.75,
18306,1661558125031,-0.5477,0.2687,-0.3497,8.0,-4.59,2.48,
18307,1661558125032,-0.6132,0.3058,-0.023,10.09,7.57,1.74,
18308,1661558125032,-0.6752,0.1515,-0.1182,13.08,-1.22,3.85,
18309,1661558125032,-0.7103,0.0036,-0.585,13.49,-8.81,5.57,
18310,1661558125033,-0.7138,-0.1507,0.0385,10.09,-4.6,5.04,
18311,1661558125033,-0.8524,-0.0404,0.0019,12.28,-10.69,5.76,
18312,1661558125034,-0.7304,-0.0164,-0.4327,14.51,-17.95,4.67,
18313,1661558125034,-0.8388,-0.1644,-0.1793,14.01,-11.94,4.31,
18314,1661558125034,-1.0399,-0.264,0.3525,11.49,-9.09,3.85,
18315,1661558125035,-0.8969,-0.0511,-0.066,7.51,-23.45,4.67,
18316,1661558125035,-1.163,-0.1522,0.184,8.09,-12.13,4.49,
18317,1661558125036,-0.9677,-0.159,0.144,11.69,-15.83,9.4,
18318,1661558125036,-1.0687,0.0612,0.0859,10.9,5.21,7.22,
18319,1661558125038,-1.1054,0.0651,0.2226,11.22,0.83,9.49,
18320,1661558125038,-1.1903,-0.1561,0.0151,9.31,-10.58,4.95,
18321,1661558125039,-1.0834,0.0846,0.2162,5.8,-13.73,4.76,
18322,1661558125039,-1.2494,0.2262,0.2187,7.71,-23.45,4.31,
18323,1661558125039,-1.0287,-0.0135,-0.1177,6.39,-18.63,7.13,
18324,1661558125040,-1.0834,0.0671,-0.0372,5.01,-7.46,8.14,
18325,1661558125040,-1.2509,0.2233,0.3329,5.48,3.01,4.58,
18326,1661558125040,-1.266,0.1701,-0.0089,0.49,-11.29,-0.16,
18327,1661558125040,-1.3217,0.1296,0.2421,2.61,-6.45,-0.8,
18328,1661558125041,-1.4374,0.0671,0.5317,4.2,-8.14,-0.8,
18329,1661558125041,-1.2758,0.1017,0.2114,3.19,-11.12,-2.18,
18330,1661558125043,-1.2313,0.0348,0.0566,3.6,1.07,-4.45,
18331,1661558125043,-1.4232,-0.2005,0.4516,4.59,4.28,-4.36,
18332,1661558125043,-1.3363,0.0046,0.2826,-5.1,3.03,-5.28,
18333,1661558125044,-1.3344,0.0094,0.2582,-4.52,5.47,0.93,
18334,1661558125044,-1.4711,-0.2694,0.4936,-6.29,5.91,0.11,
18335,1661558125045,-1.2079,-0.1717,0.1728,-8.38,-5.43,-0.62,
18336,1661558125045,-1.4442,-0.1151,0.4711,-6.51,-1.22,-1.35,
18337,1661558125045,-1.2338,-0.1263,0.3862,-7.08,0.74,-3.72,
18338,1661558125045,-1.3402,-0.14,0.2807,-7.4,8.52,-1.17,
18339,1661558125050,-1.2992,-0.034,0.4892,-6.48,12.84,-0.07,
18340,1661558125050,-1.1464,0.0739,0.2973,-11.08,4.63,-2.8,
18341,1661558125050,-1.0878,0.0802,0.3207,-9.4,12.4,3.67,
18342,1661558125050,-1.1376,0.1281,0.2763,-10.18,7.94,2.11,
18343,1661558125050,-0.9267,0.2204,0.0492,-8.79,9.97,2.75,
18344,1661558125050,-0.9599,0.2858,0.1835,-6.19,17.48,1.47,
18345,1661558125050,-1.0067,0.3024,0.1054,-1.8,12.65,-0.07,
18346,1661558125050,-0.8143,0.3366,-0.1861,-2.99,11.14,-1.17,
18347,1661558125050,-0.9437,0.3747,0.1835,-2.68,16.56,-3.99,
18348,1661558125050,-0.8065,0.1691,-0.0523,-5.19,9.97,0.11,
18349,1661558125050,-0.8095,0.1994,-0.2032,-3.98,8.95,-7.09,
18350,1661558125051,-0.8319,0.3395,0.142,-0.09,15.13,-5.46,
18351,1661558125051,-0.807,0.1242,-0.0372,0.52,5.15,-5.64,
18352,1661558125052,-0.7343,0.0934,-0.0728,-1.01,9.28,-5.64,
18353,1661558125052,-0.8104,0.1178,0.1889,0.7,8.28,-1.35,
18354,1661558125052,-0.8183,-0.0028,0.0199,2.0,4.45,-1.17,
18355,1661558125053,-0.745,-0.1092,-0.1959,4.21,2.26,-1.35,
18356,1661558125054,-0.765,-0.1326,0.1816,-0.4,11.05,0.57,
18357,1661558125054,-0.8163,-0.0653,-0.0382,-0.82,-0.54,0.11,
18358,1661558125054,-0.6093,-0.054,-0.189,1.71,-5.43,3.48,
18359,1661558125055,-0.787,-0.099,0.1113,2.38,-4.6,2.75,
18360,1661558125055,-0.5819,0.0358,0.2914,2.32,1.09,10.41,
18361,1661558125056,-0.6239,0.068,-0.4923,6.21,-9.15,10.32,
18362,1661558125056,-0.4574,0.1491,-0.1934,7.81,2.69,11.33,
18363,1661558125057,-0.745,0.2306,0.2851,7.29,1.74,8.05,
18364,1661558125057,-0.7362,0.1115,-0.0001,10.21,3.62,6.58,
18365,1661558125057,-0.5956,0.026,-0.6661,7.6,-15.59,5.48,
18366,1661558125058,-0.6576,0.2487,0.0356,8.3,-5.96,4.4,
18367,1661558125058,-0.8241,0.2336,0.1454,10.39,-9.5,2.38,
18368,1661558125059,-0.7523,0.1447,-0.4332,13.69,-17.54,4.67,
18369,1661558125059,-0.6669,0.1291,-0.4117,14.7,-7.55,4.49,
18370,1661558125060,-1.0018,0.2345,0.5712,11.7,-1.54,4.31,
18371,1661558125060,-0.9345,0.0007,-0.0997,12.59,-17.36,2.2,
18372,1661558125061,-0.9486,0.0563,-0.0997,11.8,-13.47,3.12,
18373,1661558125061,-1.037,0.0617,0.5204,14.18,2.42,3.67,
18374,1661558125061,-1.0477,-0.0467,0.2348,13.89,-4.68,-1.54,
18375,1661558125062,-1.0194,-0.1014,-0.1343,11.49,-9.09,-1.81,
18376,1661558125062,-1.1132,-0.1331,0.309,8.39,-16.02,-0.9,
18377,1661558125063,-1.2328,-0.2679,0.1938,11.6,-15.18,5.66,
18378,1661558125063,-1.0888,-0.2586,0.1137,11.22,-5.02,6.31,
18379,1661558125064,-1.2362,-0.1546,0.164,4.7,-3.9,2.38,
18380,1661558125064,-1.1723,-0.0594,0.0463,-1.62,-17.88,3.39,
18381,1661558125065,-1.1644,-0.2025,-0.0343,-2.58,-20.32,5.76,
18382,1661558125065,-1.3349,-0.1986,0.4037,1.1,-12.78,7.5,
18383,1661558125066,-1.244,-0.0028,0.205,3.01,-12.45,7.31,
18384,1661558125066,-1.3559,-0.0428,0.3544,-1.01,-5.61,4.12,
18385,1661558125066,-1.2953,0.0314,0.4198,-2.29,-6.62,2.84,
18386,1661558125067,-1.3715,0.1301,0.2787,-2.1,-3.58,1.38,
18387,1661558125067,-1.3285,0.1105,0.2802,-3.01,-1.29,3.67,
18388,1661558125068,-1.3749,0.174,0.3827,-3.01,0.05,1.93,
18389,1661558125068,-1.2797,0.2526,0.4257,-2.58,3.12,-5.28,
18390,1661558125070,-1.4022,0.1945,0.2538,-3.48,2.43,-1.81,
18391,1661558125070,-1.3466,0.1574,0.2187,-3.08,6.08,-0.53,
18392,1661558125071,-1.2909,0.2077,0.3588,-5.2,10.21,-5.18,
18393,1661558125071,-1.2963,0.2843,0.3847,-6.1,8.87,-8.83,
18394,1661558125071,-1.2484,0.1222,0.0297,-6.8,4.11,-8.37,
18395,1661558125072,-1.1415,0.0866,0.1777,-5.4,15.36,-3.63,
18396,1661558125072,-1.1112,0.1335,0.5234,-6.8,13.34,-3.9,
18397,1661558125073,-1.1503,0.007,-0.0211,-6.5,5.47,-0.44,
18398,1661558125073,-1.0849,-0.0555,0.1323,-9.7,9.6,-3.63,
18399,1661558125074,-1.1161,0.0441,0.4609,-9.6,18.0,-4.73,
18400,1661558125074,-0.996,0.009,-0.0963,-6.12,8.26,-4.27,
18401,1661558125074,-0.9462,-0.0765,-0.1998,-7.4,11.83,-6.56,
18402,1661558125074,-1.0434,-0.0609,0.3261,-9.09,12.73,-2.45,
18403,1661558125075,-0.7226,0.0236,0.0771,-7.6,7.94,-1.63,
18404,1661558125075,-0.8495,0.0168,-0.0372,-5.9,14.94,-2.99,
18405,1661558125076,-0.746,0.1174,0.1298,-5.08,16.56,-0.26,
18406,1661558125076,-0.89,0.0778,0.0639,-6.18,7.01,-2.9,
18407,1661558125077,-0.9301,0.1218,0.1982,-4.1,6.41,-2.09,
18408,1661558125077,-0.8319,0.0353,0.0761,-0.7,-1.81,4.4,
18409,1661558125077,-0.6347,0.1193,-0.0142,0.2,6.4,5.12,
18410,1661558125078,-0.7216,0.3151,0.1381,1.62,7.09,0.66,
18411,1661558125078,-0.7108,0.3063,-0.0489,-0.7,7.66,6.4,
18412,1661558125079,-0.5653,0.1808,-0.1441,0.0,8.69,2.57,
18413,1661558125079,-0.7279,0.3298,0.0512,1.6,7.18,3.48,
18414,1661558125079,-0.6542,0.1965,-0.1636,5.1,-0.71,5.39,
18415,1661558125081,-0.619,0.2829,-0.1343,5.91,3.62,1.12,
18416,1661558125081,-0.578,0.3869,-0.0015,8.81,3.03,3.21,
18417,1661558125081,-0.6225,0.2253,-0.3751,11.69,-6.11,6.95,
18418,1661558125081,-0.5956,0.2355,-0.1173,13.4,-1.12,-0.16,
18419,1661558125082,-0.6444,0.0739,-0.024,8.99,-1.89,6.12,
18420,1661558125082,-0.6854,0.008,-0.3052,10.3,-9.65,6.4,
18421,1661558125083,-0.6781,-0.0555,-0.4356,12.09,-10.25,5.94,
18422,1661558125083,-0.7719,-0.1805,0.2494,11.49,-1.48,11.88,
18423,1661558125084,-0.7772,0.0348,-0.1754,10.1,-16.5,3.85,
18424,1661558125084,-0.8485,-0.182,-0.3243,9.49,-19.24,8.78,
18425,1661558125086,-0.9916,-0.304,0.3388,13.09,-9.65,6.12,
18426,1661558125086,-0.8251,-0.1717,0.267,13.58,-12.8,11.6,
18427,1661558125086,-1.0482,-0.0296,-0.0137,6.3,-16.6,10.04,
18428,1661558125087,-0.9364,-0.1785,0.1591,4.52,-17.7,10.96,
18429,1661558125087,-1.0604,-0.013,0.1508,9.49,-11.45,10.87,
18430,1661558125088,-1.1391,0.0177,0.2436,14.59,-2.91,11.78,
18431,1661558125088,-1.1508,-0.1156,-0.0548,9.89,-10.84,11.51,
18432,1661558125089,-1.0902,0.1745,0.3691,4.61,-5.69,5.39,
18433,1661558125089,-1.1923,0.2331,0.4282,6.0,-11.62,7.13,
18434,1661558125089,-1.078,0.0256,-0.1734,7.19,-16.28,6.67,
18435,1661558125089,-1.0751,0.0617,0.0121,8.5,-11.18,3.21,
18436,1661558125089,-1.2719,0.1794,0.3505,5.62,-5.76,2.75,
18437,1661558125090,-1.3109,0.1359,-0.1602,5.11,-14.06,1.12,
18438,1661558125090,-1.2626,0.1149,-0.0269,3.8,-2.39,1.19,
18439,1661558125091,-1.3173,0.0549,0.6332,1.31,-2.05,0.02,
18440,1661558125091,-1.2377,0.0275,0.0121,3.68,-11.62,-6.63,
18441,1661558125092,-1.2831,-0.0037,0.2099,2.58,-8.33,-2.18,
18442,1661558125092,-1.4799,-0.2059,0.6249,2.7,0.57,-4.45,
18443,1661558125094,-1.3891,-0.1463,0.374,0.09,-4.77,-3.54,
18444,1661558125094,-1.3529,-0.0692,0.2094,-5.42,5.04,0.2,
18445,1661558125095,-1.4677,-0.2913,0.5639,-6.79,12.84,-0.8,
18446,1661558125095,-1.1727,-0.1302,0.0287,-8.1,-1.64,2.48,
18447,1661558125095,-1.4848,-0.1214,0.436,-9.9,0.81,0.2,
18448,1661558125096,-1.4428,-0.1483,0.6215,-7.09,2.08,0.29,
18449,1661558125096,-1.1879,-0.1492,0.1327,-8.61,-1.55,1.56,
18450,1661558125096,-1.3007,0.0383,0.3657,-11.0,8.87,4.58,
18451,1661558125096,-1.162,0.1315,0.3534,-9.6,6.4,3.3,
18452,1661558125098,-1.0726,0.1374,0.2875,-12.1,12.56,2.38,
18453,1661558125098,-1.1391,0.2028,0.3769,-12.39,11.91,1.47,
18454,1661558125099,-1.1278,0.297,0.206,-9.29,8.17,0.2,
18455,1661558125099,-0.9872,0.2702,0.2421,-9.09,14.78,-2.45,
18456,1661558125099,-0.9955,0.3844,0.0634,-5.1,15.11,-1.81,
18457,1661558125100,-0.8583,0.4733,-0.1265,-6.9,13.42,-2.18,
18458,1661558125100,-0.9335,0.4347,0.101,-9.47,18.93,-1.9,
18459,1661558125101,-0.9393,0.2736,0.2568,-4.61,14.2,-5.83,
18460,1661558125101,-0.7929,0.1994,-0.3009,-4.3,2.92,-5.64,
18461,1661558125102,-0.8217,0.3547,0.1283,-1.19,11.83,-9.93,
18462,1661558125102,-0.8402,0.1364,0.0966,0.09,11.98,-5.28,
18463,1661558125103,-0.7523,0.0593,-0.127,0.28,6.73,-3.35,
18464,1661558125103,-0.7245,0.1305,0.0566,-1.39,9.04,-2.36,
18465,1661558125104,-0.8519,0.0046,0.1884,-3.49,6.47,-2.09,
18466,1661558125104,-0.7606,-0.1131,-0.1427,-2.81,-0.19,-3.54,
18467,1661558125104,-0.7738,-0.0184,0.162,1.1,6.81,-0.26,
18468,1661558125105,-0.8827,0.0007,0.2499,2.99,4.8,1.56,
18469,1661558125105,-0.6601,-0.015,-0.0797,4.79,3.96,7.77,
18470,1661558125106,-0.7601,-0.0316,0.0248,2.78,0.31,4.22,
18471,1661558125106,-0.62,0.0973,0.1073,-2.29,7.68,6.31,
18472,1661558125106,-0.5468,0.1598,-0.231,1.8,-10.36,7.77,
18473,1661558125106,-0.6098,0.1105,-0.4176,6.7,-2.73,3.03,
18474,1661558125107,-0.6586,0.2717,0.1865,9.67,-1.72,3.85,
18475,1661558125107,-0.6669,0.152,-0.1754,11.9,-2.8,5.12,
18476,1661558125108,-0.5761,0.0475,-0.5303,10.7,-11.88,8.5,
18477,1661558125108,-0.6517,0.1579,-0.3101,7.8,-2.99,2.02,
18478,1661558125108,-0.7084,0.3,0.2719,14.41,-4.08,6.95,
18479,1661558125110,-0.7948,0.151,-0.3726,12.38,-13.91,1.03,
18480,1661558125110,-0.7411,0.0656,-0.1221,11.11,-11.35,1.93,
18481,1661558125111,-0.9726,0.1711,0.3969,13.41,-5.76,1.47,
18482,1661558125111,-0.9149,0.0055,-0.148,13.29,-7.14,-0.8,
18483,1661558125111,-0.9027,-0.0355,-0.2296,9.28,-9.5,-0.16,
18484,1661558125111,-0.9916,-0.0091,0.2387,8.88,-0.62,-0.53,
18485,1661558125113,-1.0199,-0.099,0.0698,13.89,-6.04,3.67,
18486,1661558125113,-1.0414,-0.1956,-0.0684,16.69,-4.94,2.48,
18487,1661558125113,-1.0809,-0.18,0.2499,10.59,-11.96,1.38,
18488,1661558125114,-1.2079,-0.2,0.1806,4.79,-20.33,-0.35,
18489,1661558125114,-1.1434,-0.2088,0.1298,5.8,-17.21,4.49,
18490,1661558125114,-1.1801,-0.201,0.1669,3.01,-4.42,6.21,
18491,1661558125114,-1.1395,-0.1141,0.0551,1.69,-7.23,5.48,
18492,1661558125115,-1.1845,-0.1898,0.0038,0.99,-13.32,9.59,
18493,1661558125115,-1.3646,-0.1756,0.5156,0.72,-10.25,5.57,
18494,1661558125116,-1.2494,-0.0604,0.1669,2.2,-20.32,7.5,
18495,1661558125116,-1.4193,-0.0096,0.0527,-1.4,-13.22,8.41,
18496,1661558125118,-1.3412,0.0094,0.3852,-2.59,-4.1,7.4,
18497,1661558125118,-1.3544,0.0163,0.2939,-3.69,-3.82,3.21,
18498,1661558125118,-1.3261,0.1457,0.2734,-3.1,1.74,1.56,
18499,1661558125119,-1.3891,0.1169,0.3207,-3.1,-2.73,0.66,
18500,1661558125119,-1.3163,0.0959,0.4169,-4.29,0.33,-2.64,
18501,1661558125120,-1.3983,0.1769,0.5292,-6.18,1.59,-4.27,
18502,1661558125120,-1.3207,0.193,0.1943,-5.1,-1.2,-2.09,
18503,1661558125121,-1.2948,0.2199,0.2699,-5.6,2.77,-7.09,
18504,1661558125121,-1.3378,0.2082,0.5639,-6.0,11.13,-4.09,
18505,1661558125121,-1.289,0.1535,0.4057,-5.61,7.16,-4.63,
18506,1661558125121,-1.1122,0.1291,0.0497,-4.9,9.88,-3.63,
18507,1661558125122,-1.098,0.1056,0.4609,-9.29,18.0,-5.73,
18508,1661558125122,-1.1459,0.0397,0.1244,-10.59,10.38,-5.73,
18509,1661558125123,-1.1024,0.068,-0.0303,-14.08,6.75,-3.35,
18510,1661558125123,-1.0419,0.1037,0.2597,-10.68,9.37,-6.01,
18511,1661558125124,-1.1215,-0.0208,0.2558,-9.2,9.27,-3.35,
18512,1661558125124,-0.9809,0.0129,-0.0758,-6.7,8.18,0.57,
18513,1661558125125,-1.0614,0.0119,0.3364,-10.3,13.17,-0.44,
18514,1661558125126,-0.7587,0.0304,0.1279,-9.08,9.37,-0.9,
18515,1661558125126,-0.8617,0.092,-0.0382,-7.49,15.11,3.76,
18516,1661558125127,-0.9232,0.1193,0.121,-5.28,18.09,1.93,
18517,1661558125127,-0.7841,0.1086,-0.0386,-5.9,4.45,2.38,
18518,1661558125128,-0.8998,0.1525,0.3007,-8.61,4.78,-0.99,
18519,1661558125128,-0.8471,0.0939,-0.0924,-5.02,-7.73,0.29,
18520,1661558125128,-0.7499,0.1301,-0.2188,1.89,9.1,0.75,
18521,1661558125129,-0.6796,0.3825,0.1586,1.51,11.57,-3.54,
18522,1661558125129,-0.723,0.3117,-0.1236,2.72,11.48,-1.9,
18523,1661558125130,-0.6303,0.2067,-0.1802,0.7,6.73,-0.07,
18524,1661558125130,-0.8056,0.2843,0.289,-0.11,7.07,3.12,
18525,1661558125131,-0.7372,0.2756,0.185,0.09,1.49,2.02,
18526,1661558125131,-0.6063,0.3141,-0.169,2.0,-1.63,4.86,
18527,1661558125131,-0.5424,0.3434,-0.0128,7.1,1.91,9.59,
18528,1661558125132,-0.6078,0.215,-0.1319,9.49,-1.81,4.31,
18529,1661558125132,-0.6161,0.1681,-0.2711,12.71,1.26,3.21,
18530,1661558125133,-0.6684,0.11,-0.066,12.09,4.22,3.03,
18531,1661558125133,-0.6962,-0.0194,-0.2384,8.91,-3.4,2.11,
18532,1661558125134,-0.6615,-0.0379,-0.4278,7.49,-15.25,-0.9,
18533,1661558125134,-0.6859,-0.1199,0.0502,10.09,-6.95,0.57,
18534,1661558125135,-0.8392,-0.0628,0.0107,11.11,-10.58,4.49,
18535,1661558125135,-0.7396,-0.0301,-0.3121,9.48,-15.94,5.48,
18536,1661558125135,-1.0023,-0.3182,0.1381,7.81,-19.47,7.4,
18537,1661558125136,-0.8261,-0.1009,0.2338,8.59,-17.27,2.48,
18538,1661558125136,-1.038,-0.0496,0.1103,10.19,-10.95,3.03,
18539,1661558125136,-0.9232,-0.1805,0.2153,10.39,-0.45,6.4,
18540,1661558125137,-0.9257,-0.0491,0.1352,5.68,-10.6,4.76,
18541,1661558125137,-1.0287,0.029,0.287,4.72,-8.39,0.75,
18542,1661558125138,-1.1137,-0.1805,0.0688,11.7,-18.79,2.2,
18543,1661558125138,-1.1015,0.0339,0.2255,9.98,-6.46,3.12,
18544,1661558125139,-1.185,0.2189,0.4096,7.6,-5.35,5.48,
18545,1661558125139,-1.1591,0.1427,0.0214,4.3,-12.11,2.66,
18546,1661558125139,-0.9506,-0.0037,-0.2281,3.5,-6.54,2.66,
18547,1661558125141,-1.1942,0.1623,0.4921,3.8,-1.98,5.66,
18548,1661558125141,-1.2182,0.009,-0.0279,5.71,-14.31,2.75,
18549,1661558125141,-1.2963,0.0407,-0.2105,4.9,-18.31,3.57,
18550,1661558125142,-1.3485,0.1017,0.5663,2.81,-2.3,-2.0,
18551,1661558125142,-1.3524,0.0075,0.2939,2.11,-7.29,1.29,
18552,1661558125143,-1.2621,-0.0208,-0.1739,-1.02,-1.31,-2.71,
18553,1661558125143,-1.35,-0.1126,0.7446,1.42,10.21,-1.08,
18554,1661558125144,-1.3783,-0.0721,0.3295,-1.1,0.23,-0.07,
18555,1661558125144,-1.3309,-0.0145,0.0121,-5.1,-10.25,-0.9,
18556,1661558125145,-1.4779,-0.241,0.4887,-6.79,3.96,-2.18,
18557,1661558125145,-1.3046,-0.1898,0.3534,-9.9,-1.81,-5.55,
18558,1661558125145,-1.3637,0.029,0.0429,-9.09,3.1,-3.81,
18559,1661558125146,-1.453,-0.1424,0.704,-6.39,13.26,-1.72,
18560,1661558125146,-1.2211,-0.1331,0.1601,-8.21,-6.04,2.93,
18561,1661558125146,-1.3012,-0.0506,0.1572,-13.09,2.35,0.66,
18562,1661558125147,-1.2284,0.0798,0.5214,-11.69,4.8,1.47,
18563,1661558125148,-1.2059,0.0788,0.2148,-15.01,8.67,-2.54,
18564,1661558125148,-1.1635,0.299,0.4091,-14.39,19.84,-2.0,
18565,1661558125148,-1.1278,0.3273,0.1454,-12.8,14.01,0.48,
18566,1661558125148,-0.9389,0.2692,0.1283,-9.58,17.49,-2.45,
18567,1661558125150,-1.0101,0.2897,0.1742,-5.8,12.56,-1.72,
18568,1661558125150,-0.8969,0.4469,-0.1661,-4.88,8.44,-3.81,
18569,1661558125151,-0.9433,0.4513,0.0517,-7.78,7.76,-3.63,
18570,1661558125151,-0.9476,0.2521,0.3407,-6.79,18.33,-2.27,
18571,1661558125151,-0.7528,0.2306,-0.3262,-5.29,7.09,-1.63,
18572,1661558125152,-0.7226,0.3156,-0.2701,-1.69,11.07,-4.18,
18573,1661558125152,-0.8085,0.214,0.3149,-2.81,12.32,-3.35,
18574,1661558125153,-0.7924,0.0075,-0.043,-1.01,6.58,-0.07,
18575,1661558125153,-0.7606,0.1379,0.0053,-4.29,6.83,-0.53,
18576,1661558125154,-0.8974,0.0026,0.2895,-5.89,11.48,-1.35,
18577,1661558125154,-0.765,-0.1463,-0.1129,-4.2,0.55,-0.07,
18578,1661558125155,-0.6454,-0.0828,-0.1402,-3.19,2.26,2.93,
18579,1661558125155,-0.9022,-0.0018,0.2416,2.61,2.6,0.11,
18580,1661558125155,-0.6542,-0.0159,0.0385,1.5,-1.48,7.59,
18581,1661558125156,-0.7909,-0.0013,0.0263,1.4,0.23,7.4,
18582,1661558125156,-0.5687,0.1105,0.1972,1.01,10.9,2.38,
18583,1661558125156,-0.559,0.1872,-0.2066,0.81,-7.21,5.04,
18584,1661558125156,-0.6229,0.1247,-0.3316,2.32,-5.02,3.67,
18585,1661558125157,-0.6566,0.2541,0.1288,4.7,-11.62,1.03,
18586,1661558125157,-0.6586,0.214,-0.1495,8.79,-7.21,7.13,
18587,1661558125158,-0.6034,0.1759,-0.4107,11.0,-9.65,5.12,
18588,1661558125158,-0.6757,0.1637,-0.3428,12.91,-3.82,4.03,
18589,1661558125158,-0.6703,0.318,0.1435,10.61,2.19,6.85,
18590,1661558125159,-0.7904,0.2009,-0.2413,10.61,-8.14,3.48,
18591,1661558125159,-0.7738,0.1447,-0.3316,11.6,-8.33,4.95,
18592,1661558125161,-0.8822,0.2145,0.2231,10.99,-10.1,3.3,
18593,1661558125161,-0.9086,0.1252,0.2289,12.3,-7.98,4.67,
18594,1661558125161,-0.9301,-0.0911,-0.148,12.39,-10.1,6.31,
18595,1661558125161,-0.9828,-0.0316,0.2026,9.9,0.74,1.56,
18596,1661558125162,-1.0087,-0.1414,0.185,8.59,-7.99,8.78,
18597,1661558125162,-1.1098,-0.1991,-0.0382,8.39,-13.56,5.57,
18598,1661558125163,-1.0653,-0.2298,-0.0089,10.0,-11.44,8.32,
18599,1661558125163,-1.2274,-0.2083,0.3173,6.61,-7.29,6.4,
18600,1661558125164,-1.1708,-0.2074,0.1288,3.59,-16.18,6.03,
18601,1661558125164,-1.1972,-0.2,0.0619,2.32,-16.34,3.85,
18602,1661558125165,-1.1561,-0.1361,0.2074,-0.2,-10.94,4.58,
18603,1661558125165,-1.0907,-0.117,0.0243,2.3,-16.87,9.13,
18604,1661558125165,-1.3085,-0.1449,0.162,1.5,-7.72,4.95,
18605,1661558125167,-1.2904,-0.1336,0.4345,0.5,-7.9,6.03,
18606,1661558125167,-1.4081,-0.0057,0.1254,-1.08,-8.65,5.04,
18607,1661558125168,-1.3451,0.0387,0.288,-1.4,-0.71,4.49,
18608,1661558125168,-1.37,-0.0233,0.3051,-2.99,-8.48,-0.16,
18609,1661558125169,-1.2543,0.0607,0.3202,-6.61,-2.56,0.39,
18610,1661558125169,-1.3734,0.1584,0.3613,-5.1,-5.18,0.39,
18611,1661558125170,-1.2792,0.0514,0.249,-3.19,1.76,-1.08,
18612,1661558125170,-1.3998,0.1515,0.4858,-3.19,4.55,4.86,
18613,1661558125170,-1.3432,0.1681,0.4282,-7.08,8.52,-3.44,
18614,1661558125171,-1.245,0.1476,0.1215,-8.89,4.11,-4.45,
18615,1661558125171,-1.328,0.172,0.5234,-8.68,13.77,-1.35,
18616,1661558125172,-1.2621,0.0817,0.4037,-8.8,6.9,-0.8,
18617,1661558125172,-1.2206,0.133,0.1449,-7.29,6.47,-2.09,
18618,1661558125173,-1.1332,0.1447,0.2543,-6.3,12.67,-5.55,
18619,1661558125173,-1.2099,-0.034,0.4443,-5.98,12.41,-0.8,
18620,1661558125174,-1.1459,0.0368,0.0492,-11.09,8.44,-3.81,
18621,1661558125174,-1.0267,0.0954,0.2055,-14.1,10.72,-3.81,
18622,1661558125174,-1.1195,-0.0404,0.3115,-14.37,11.14,-3.72,
18623,1661558125175,-0.9506,0.0085,-0.0518,-9.99,2.19,1.47,
18624,1661558125175,-1.0228,0.0949,0.0097,-8.1,8.95,-2.27,
18625,1661558125176,-0.9887,0.111,0.3412,-6.82,11.3,-3.08,
18626,1661558125176,-1.0487,0.0353,0.1415,-9.0,3.7,2.66,
18627,1661558125177,-0.8788,0.1545,0.1113,-13.18,7.94,-2.18,
18628,1661558125177,-0.7216,0.2209,0.0116,-6.68,4.22,-7.18,
18629,1661558125178,-0.9184,0.1769,0.1884,-4.2,19.95,-1.45,
18630,1661558125178,-0.9169,0.1237,0.2826,-3.39,12.17,-5.73,
18631,1661558125178,-0.746,0.1862,-0.1217,-5.51,5.13,-2.54,
18632,1661558125179,-0.724,0.446,0.1845,-2.3,9.28,-0.44,
18633,1661558125179,-0.7465,0.3542,0.0981,-1.3,6.64,1.38,
18634,1661558125180,-0.6098,0.2067,-0.2095,-2.38,6.32,0.66,
18635,1661558125180,-0.7372,0.362,0.1215,-2.99,8.95,1.29,
18636,1661558125181,-0.6806,0.2419,-0.0098,2.99,2.17,3.57,
18637,1661558125181,-0.6459,0.1335,-0.1544,5.98,0.65,-0.16,
18638,1661558125182,-0.6322,0.3805,-0.0181,8.3,5.21,-0.62,
18639,1661558125182,-0.6342,0.238,-0.1983,5.49,-0.71,2.2,
18640,1661558125182,-0.6093,0.0807,-0.2008,6.07,4.11,2.66,
18641,1661558125183,-0.6659,0.0368,-0.0162,7.68,4.7,0.11,
18642,1661558125183,-0.6283,0.028,-0.1822,8.5,3.01,-0.07,
18643,1661558125184,-0.6991,0.0236,-0.4381,6.32,-5.69,3.67,
18644,1661558125184,-0.704,-0.2083,0.0561,8.68,-1.31,1.29,
18645,1661558125185,-0.8744,-0.0701,0.0073,7.4,-7.9,0.2,
18646,1661558125185,-0.7284,0.0905,-0.3282,8.21,-17.02,5.94,
18647,1661558125186,-0.8402,-0.1961,-0.1842,9.4,-8.81,6.4,
18648,1661558125186,-0.9403,-0.2498,0.4057,5.8,-4.76,9.04,
18649,1661558125186,-0.8808,0.0671,-0.025,3.42,-20.91,6.85,
18650,1661558125187,-1.017,-0.1038,0.0483,4.3,-18.96,3.21,
18651,1661558125187,-0.9188,-0.1536,0.2421,10.59,-16.18,4.95,
18652,1661558125188,-1.0341,0.0231,0.1884,9.42,0.91,6.31,
18653,1661558125188,-1.098,0.0099,0.0907,8.97,-5.44,6.49,
18654,1661558125189,-1.1073,-0.1678,-0.0528,7.2,-9.91,4.58,
18655,1661558125189,-1.0936,0.1896,0.4677,-0.29,-3.06,0.2,
18656,1661558125189,-1.1937,0.2687,0.4194,2.98,-10.86,0.39,
18657,1661558125189,-1.0692,0.0119,-0.1973,5.08,-15.51,4.95,
18658,1661558125190,-1.1073,0.0676,0.1806,3.69,-12.8,1.19,
18659,1661558125190,-1.2255,0.195,0.4174,1.98,-7.14,0.29,
18660,1661558125191,-1.1835,0.0929,0.1117,3.8,-17.1,-3.44,
18661,1661558125191,-1.1859,0.0407,0.0165,3.31,0.49,-2.71,
18662,1661558125191,-1.2777,-0.0052,0.6645,2.2,4.61,1.38,
18663,1661558125192,-1.2152,-0.0316,-0.0137,2.5,-4.25,-2.64,
18664,1661558125192,-1.2348,-0.1282,0.1528,-0.5,-6.63,-0.07,
18665,1661558125193,-1.3002,-0.1907,0.538,-3.49,-1.2,2.48,
18666,1661558125193,-1.3808,-0.1234,0.3188,-5.71,-8.92,-2.8,
18667,1661558125194,-1.2841,-0.0999,0.1244,-7.9,4.45,0.84,
18668,1661558125194,-1.4613,-0.2933,0.642,-7.8,8.87,-1.35,
18669,1661558125195,-1.1776,-0.1131,0.0414,-8.18,-0.61,1.12,
18670,1661558125195,-1.4833,-0.0374,0.4765,-12.71,-0.96,1.19,
18671,1661558125196,-1.435,-0.0369,0.7973,-10.1,-2.05,1.65,
18672,1661558125196,-1.2567,-0.095,0.1972,-9.29,-2.65,0.2,
18673,1661558125196,-1.3051,0.1076,0.2255,-9.61,15.19,-0.07,
18674,1661558125197,-1.2494,0.1554,0.4374,-10.48,16.23,-1.45,
18675,1661558125198,-1.0971,0.1281,0.3808,-10.09,18.67,0.75,
18676,1661558125199,-1.1659,0.3527,0.2079,-13.2,9.19,-2.45,
18677,1661558125199,-1.1029,0.4211,0.0492,-13.29,6.15,0.02,
18678,1661558125200,-0.9374,0.2609,0.1327,-10.7,14.09,-2.45,
18679,1661558125200,-1.0399,0.3566,0.0932,-6.01,15.28,-7.92,
18680,1661558125201,-0.9022,0.464,-0.2115,-6.18,6.66,-7.09,
18681,1661558125201,-0.9652,0.4015,0.2895,-7.29,15.97,-11.2,
18682,1661558125201,-0.8925,0.1584,0.0898,-8.89,8.34,-5.55,
18683,1661558125202,-0.8261,0.194,-0.2213,-4.82,5.47,-6.73,
18684,1661558125202,-0.7826,0.3688,0.1152,-2.79,14.96,-10.2,
18685,1661558125203,-0.9096,0.0617,0.2612,-3.69,13.77,-8.19,
18686,1661558125203,-0.7865,0.0007,-0.1798,-4.61,7.25,-9.2,
18687,1661558125204,-0.7562,0.1637,0.1635,-3.6,9.86,-8.46,
18688,1661558125204,-0.8661,-0.0223,0.1625,-3.49,10.29,-2.27,
18689,1661558125205,-0.768,-0.0833,-0.1275,0.9,2.51,-0.44,
18690,1661558125205,-0.7577,-0.1019,-0.0543,-2.59,5.71,3.48,
18691,1661558125206,-0.8397,0.0124,0.227,0.98,-1.14,2.02,
18692,1661558125206,-0.5824,0.0314,-0.1339,-0.9,-4.77,-0.99,
18693,1661558125206,-0.6771,0.0534,0.1703,0.41,1.16,-2.27,
18694,1661558125206,-0.6434,0.09,0.1518,1.62,3.12,5.48,
18695,1661558125206,-0.6298,0.1554,-0.3052,2.79,3.85,8.14,
18696,1661558125207,-0.5941,0.1525,-0.0655,6.1,6.92,2.57,
18697,1661558125207,-0.7455,0.1921,0.0341,6.7,4.55,4.22,
18698,1661558125208,-0.6361,0.1764,-0.0714,5.71,-0.19,3.57,
18699,1661558125208,-0.6405,0.1979,-0.3634,6.3,-12.98,6.4,
18700,1661558125208,-0.6854,0.1843,-0.045,8.5,-9.42,3.12,
18701,1661558125211,-0.7675,0.1862,0.0761,10.0,-5.78,2.11,
18702,1661558125211,-0.7684,0.1989,-0.129,9.67,-8.49,1.29,
18703,1661558125211,-0.7528,0.113,-0.2418,10.5,-7.81,0.29,
18704,1661558125211,-0.9061,0.1598,0.2875,11.99,-2.91,-1.35,
18705,1661558125211,-0.9813,-0.0247,0.1249,10.38,-5.87,-0.71,
18706,1661558125211,-0.9213,-0.0863,-0.1866,9.4,-11.52,-1.17,
18707,1661558125212,-1.0014,-0.0916,0.3276,8.5,-5.18,0.39,
18708,1661558125212,-1.0175,-0.1864,0.3813,7.8,-5.18,2.66,
18709,1661558125213,-1.0687,-0.2088,-0.0343,7.19,-12.29,3.85,
18710,1661558125213,-1.0336,-0.1829,0.0907,6.2,-12.96,1.56,
18711,1661558125213,-1.2299,-0.3431,0.4745,4.2,-9.59,7.59,
18712,1661558125214,-1.0634,-0.1781,0.0253,3.31,-15.5,4.86,
18713,1661558125214,-1.1517,-0.0994,-0.024,-1.71,-8.22,9.31,
18714,1661558125215,-1.1806,-0.1942,0.2499,-0.3,-6.46,8.69,
18715,1661558125216,-1.1942,-0.1732,0.08,-0.79,-10.94,5.85,
18716,1661558125216,-1.3017,-0.0628,0.2651,-0.09,-9.65,3.39,
18717,1661558125216,-1.2636,-0.0428,0.2265,-1.49,-17.27,6.58,
18718,1661558125217,-1.2377,0.0158,0.2045,-1.28,-7.72,4.86,
18719,1661558125217,-1.2899,0.0226,0.2861,-3.01,-1.29,2.11,
18720,1661558125218,-1.3646,0.1364,0.2543,-4.0,3.18,1.74,
18721,1661558125218,-1.3012,0.2326,0.3217,-5.49,5.71,-2.0,
18722,1661558125218,-1.3568,0.1086,0.331,-5.49,2.86,-2.09,
18723,1661558125219,-1.3104,0.0671,0.3583,-6.61,2.43,-1.72,
18724,1661558125219,-1.4218,0.2145,0.3945,-7.49,2.84,-3.08,
18725,1661558125220,-1.3261,0.1183,0.2348,-7.8,-0.96,0.48,
18726,1661558125220,-1.3456,0.2267,0.3949,-9.2,6.23,-7.37,
18727,1661558125222,-1.3622,0.195,0.5571,-11.0,15.78,-6.28,
18728,1661558125222,-1.2934,-0.0086,0.2548,-10.99,12.24,-8.01,
18729,1661558125223,-1.1576,0.0309,0.1117,-9.99,14.59,-8.92,
18730,1661558125223,-1.1513,0.1071,0.5751,-9.29,16.06,-10.02,
18731,1661558125224,-1.2108,0.0119,0.1601,-11.4,5.71,-7.37,
18732,1661558125224,-1.0565,0.0368,0.0116,-15.7,8.09,-3.26,
18733,1661558125224,-1.1234,0.092,0.4467,-15.52,16.55,-2.64,
18734,1661558125225,-0.994,0.1291,0.0453,-11.9,18.42,-2.71,
18735,1661558125225,-0.8685,0.0885,-0.2432,-11.09,6.31,-4.18,
18736,1661558125226,-0.9989,0.1149,0.1674,-12.48,10.55,-1.26,
18737,1661558125226,-0.8173,0.216,0.3378,-10.1,4.46,-4.09,
18738,1661558125227,-0.9296,0.0666,-0.0919,-11.2,10.29,-0.9,
18739,1661558125227,-0.7211,0.2619,0.0688,-6.8,8.09,1.93,
18740,1661558125228,-0.912,0.2511,0.2236,-7.7,8.69,-2.27,
18741,1661558125228,-0.8495,0.2233,0.248,-3.49,9.6,4.4,
18742,1661558125229,-0.8241,0.1476,-0.0767,-0.59,5.65,2.11,
18743,1661558125229,-0.704,0.2492,0.1537,-3.01,13.68,1.83,
18744,1661558125229,-0.7631,0.3752,0.1152,-5.1,7.16,0.39,
18745,1661558125230,-0.7821,0.2892,-0.0977,-1.91,7.07,-1.9,
18746,1661558125230,-0.6952,0.1364,-0.0611,-0.72,10.63,5.94,
18747,1661558125231,-0.7313,0.3639,0.102,1.01,13.1,-0.99,
18748,1661558125231,-0.6405,0.2502,-0.128,5.3,5.21,-3.26,
18749,1661558125231,-0.6166,0.2492,-0.1114,5.81,8.11,-5.46,
18750,1661558125231,-0.6063,0.2433,-0.0743,6.97,1.74,-0.35,
18751,1661558125233,-0.6908,0.0778,-0.1544,8.39,-0.1,-1.26,
18752,1661558125233,-0.6605,0.1125,-0.0992,8.9,-5.27,-2.71,
18753,1661558125233,-0.6088,0.0236,-0.1959,7.62,-2.56,-1.81,
18754,1661558125233,-0.6708,0.0036,-0.3277,7.49,-2.74,0.02,
18755,1661558125233,-0.6591,-0.0091,-0.2745,6.68,-0.38,5.57,
18756,1661558125234,-0.7304,-0.1556,0.1049,6.2,0.05,0.48,
18757,1661558125234,-0.8178,-0.0023,-0.0894,8.07,-11.12,3.21,
18758,1661558125236,-0.8329,-0.1624,-0.1553,6.59,-25.49,7.13,
18759,1661558125236,-0.9262,-0.2059,0.2802,9.71,-15.33,2.57,
18760,1661558125237,-0.8627,0.0153,0.0346,10.9,-6.54,10.04,
18761,1661558125237,-1.0014,-0.0452,-0.0894,9.69,-1.22,2.75,
18762,1661558125238,-0.9203,-0.0828,0.1889,6.5,-9.67,7.59,
18763,1661558125238,-1.0663,-0.0155,0.2109,3.01,-13.13,6.4,
18764,1661558125238,-1.08,-0.0745,0.0868,7.2,-15.67,5.76,
18765,1661558125239,-1.0966,-0.0325,0.0326,6.59,-12.29,10.04,
18766,1661558125239,-1.0404,0.0177,0.1747,6.81,0.07,4.86,
18767,1661558125239,-1.1815,0.1711,0.3222,3.5,-2.56,5.94,
18768,1661558125240,-1.1181,-0.0052,-0.0059,2.0,-3.75,3.03,
18769,1661558125240,-1.0658,0.0705,0.1503,0.79,-3.9,0.29,
18770,1661558125240,-1.1161,0.1305,0.2822,-0.3,-5.95,4.22,
18771,1661558125241,-1.1674,0.0632,0.0063,1.19,-16.5,0.39,
18772,1661558125241,-1.1967,0.0065,0.0737,5.3,-5.78,0.02,
18773,1661558125242,-1.2665,-0.0335,0.5156,1.89,-5.26,3.76,
18774,1661558125243,-1.2836,-0.1082,-0.0167,-0.49,-5.76,2.66,
18775,1661558125243,-1.3021,-0.0775,-0.0782,-5.29,-2.07,2.75,
18776,1661558125243,-1.31,-0.1781,0.5492,-7.98,3.62,1.12,
18777,1661558125245,-1.393,-0.1771,0.3652,-9.4,-6.28,1.83,
18778,1661558125245,-1.2387,-0.1224,0.0678,-8.5,-8.23,-2.99,
18779,1661558125245,-1.4433,-0.2078,0.662,-9.9,4.29,-2.27,
18780,1661558125245,-1.1967,-0.1473,0.2006,-10.7,1.16,3.12,
18781,1661558125245,-1.3427,-0.0491,0.0912,-10.68,1.0,1.65,
18782,1661558125246,-1.413,-0.0135,0.7084,-13.27,8.35,2.66,
18783,1661558125246,-1.2899,-0.0116,0.2773,-11.58,-5.09,3.3,
18784,1661558125247,-1.2357,0.134,0.206,-10.88,7.01,0.57,
18785,1661558125247,-1.1708,0.1803,0.3652,-9.09,6.92,0.39,
18786,1661558125248,-1.1708,0.1476,0.3583,-12.59,16.73,0.93,
18787,1661558125248,-1.1498,0.3288,0.3691,-14.8,16.64,-4.27,
18788,1661558125249,-1.101,0.4362,0.0615,-13.59,11.56,-3.63,
18789,1661558125249,-0.9672,0.3727,0.2182,-13.29,11.07,-2.64,
18790,1661558125250,-1.0604,0.362,0.1596,-7.49,10.55,-2.8,
18791,1661558125250,-0.9184,0.3581,-0.1568,-6.8,8.67,-2.45,
18792,1661558125250,-0.9389,0.4372,0.0976,-8.99,18.0,-8.37,
18793,1661558125252,-0.9691,0.3512,0.4267,-6.5,17.48,-5.64,
18794,1661558125252,-0.8119,0.1623,-0.2872,-4.09,9.37,-7.09,
18795,1661558125252,-0.7465,0.2985,0.0102,-4.3,14.79,-7.46,
18796,1661558125252,-0.9013,0.0431,0.2704,-3.48,14.79,-3.08,
18797,1661558125253,-0.8598,-0.0443,-0.2379,-5.98,6.58,-2.18,
18798,1661558125253,-0.7313,0.0446,-0.234,-6.61,6.4,-2.54,
18799,1661558125254,-0.7904,0.0549,0.349,-4.61,12.07,-3.9,
18800,1661558125254,-0.7689,0.0085,-0.0216,-0.38,-2.13,-0.53,
18801,1661558125255,-0.7538,-0.0965,-0.1827,-6.3,4.98,3.48,
18802,1661558125255,-0.8168,0.0143,0.3432,-0.99,5.32,0.75,
18803,1661558125255,-0.6727,0.0588,0.0409,-1.31,0.14,2.66,
18804,1661558125256,-0.7816,0.0788,-0.0172,-1.91,-5.85,8.87,
18805,1661558125256,-0.6532,0.154,0.0702,-1.01,0.05,4.31,
18806,1661558125257,-0.6342,0.2536,-0.2247,1.89,-1.89,9.86,
18807,1661558125258,-0.6449,0.2384,-0.0377,6.39,11.07,6.95,
18808,1661558125258,-0.6913,0.1652,-0.0177,9.58,7.33,4.67,
18809,1661558125258,-0.6513,0.134,-0.128,4.59,8.69,7.4,
18810,1661558125258,-0.6552,0.3927,-0.2691,3.69,-5.96,1.74,
18811,1661558125259,-0.6796,0.1379,-0.2012,4.0,-13.21,1.74,
18812,1661558125259,-0.6928,0.0842,-0.0216,10.0,-8.66,0.02,
18813,1661558125261,-0.7953,0.2648,-0.0416,12.31,-8.05,4.12,
18814,1661558125261,-0.8056,0.1681,-0.2144,12.39,-4.6,-1.81,
18815,1661558125261,-0.8598,0.1169,0.1948,11.61,0.66,0.2,
18816,1661558125262,-0.9364,-0.0858,0.0639,7.8,-3.75,0.57,
18817,1661558125262,-0.8754,-0.118,-0.1632,6.99,-11.27,-1.08,
18818,1661558125263,-0.9613,0.027,0.0053,8.59,-12.46,3.21,
18819,1661558125263,-1.0277,-0.2371,0.351,10.61,-7.29,3.12,
18820,1661558125263,-1.0643,-0.2728,-0.0411,5.19,-7.81,2.66,
18821,1661558125263,-1.0282,-0.2435,0.1059,4.4,-4.5,-3.9,
18822,1661558125264,-1.2313,-0.3494,0.4692,2.99,-5.53,4.31,
18823,1661558125264,-1.1664,-0.2103,0.2441,3.19,-17.53,3.21,
18824,1661558125265,-1.183,-0.0985,0.0317,-0.5,-15.42,9.77,
18825,1661558125265,-1.2201,-0.2127,0.4384,-1.78,-6.19,11.14,
18826,1661558125266,-1.1928,-0.2049,0.0102,-0.61,-9.33,9.86,
18827,1661558125266,-1.2767,-0.0282,0.2504,-2.2,-1.48,8.78,
18828,1661558125267,-1.2577,-0.0286,0.2607,0.11,-7.55,5.76,
18829,1661558125267,-1.3607,-0.0238,0.099,-1.8,-5.53,3.57,
18830,1661558125268,-1.2821,0.0622,0.183,-3.29,-5.53,2.38,
18831,1661558125269,-1.3466,0.1481,0.2211,-4.61,-3.73,2.02,
18832,1661558125269,-1.265,0.1628,0.2558,-5.29,0.74,-0.71,
18833,1661558125269,-1.3407,0.133,0.2978,-7.7,1.16,-2.64,
18834,1661558125270,-1.3095,0.0856,0.3075,-8.89,1.07,-3.08,
18835,1661558125270,-1.349,0.1852,0.3115,-9.08,1.76,-5.18,
18836,1661558125270,-1.2597,0.1725,0.3373,-9.08,4.05,-1.17,
18837,1661558125271,-1.3309,0.1618,0.288,-9.6,4.98,-8.28,
18838,1661558125271,-1.3163,0.1213,0.4262,-7.8,12.73,-6.1,
18839,1661558125271,-1.306,-0.0116,0.4301,-9.47,8.44,-9.29,
18840,1661558125272,-1.1571,0.0363,0.1362,-9.22,8.93,-8.46,
18841,1661558125272,-1.0966,0.1076,0.3388,-13.59,12.99,-5.09,
18842,1661558125273,-1.2118,-0.0604,0.2533,-14.4,13.42,-5.09,
18843,1661558125273,-1.0287,0.0436,-0.002,-16.59,8.11,-5.83,
18844,1661558125274,-1.0038,0.0495,0.1186,-15.69,12.33,-6.19,
18845,1661558125274,-1.1278,0.0124,0.3744,-13.2,11.74,-2.54,
18846,1661558125275,-0.8861,0.0798,-0.129,-14.28,2.86,-2.8,
18847,1661558125275,-0.9999,0.1335,0.1113,-11.99,12.67,-1.17,
18848,1661558125277,-0.789,0.1286,0.2353,-7.49,6.66,-3.72,
18849,1661558125277,-0.9257,0.1012,-0.0133,-8.19,13.16,-2.27,
18850,1661558125277,-0.7787,0.3171,0.124,-8.7,16.62,-3.63,
18851,1661558125278,-0.849,0.3205,0.0619,-12.3,7.42,-3.26,
18852,1661558125278,-0.7724,0.2038,0.1318,-10.8,10.7,-0.71,
18853,1661558125278,-0.8349,0.2399,0.0346,-3.48,5.73,-3.99,
18854,1661558125279,-0.744,0.2526,0.0004,-4.1,12.49,5.66,
18855,1661558125279,-0.7943,0.3068,0.0634,-3.2,8.17,-2.99,
18856,1661558125279,-0.7763,0.2966,0.0136,-4.1,10.47,1.83,
18857,1661558125280,-0.7162,0.2238,-0.0235,-4.88,3.79,-1.63,
18858,1661558125280,-0.7103,0.2887,0.0278,-1.71,5.21,-4.09,
18859,1661558125281,-0.6586,0.215,0.0165,3.4,1.07,3.3,
18860,1661558125282,-0.6151,0.2629,-0.0577,4.91,4.05,-7.18,
18861,1661558125282,-0.619,0.2214,-0.1041,4.29,2.84,-2.99,
18862,1661558125282,-0.7348,0.0295,-0.0699,6.0,5.21,-1.9,
18863,1661558125282,-0.7084,0.0773,-0.0421,4.91,1.26,-0.9,
18864,1661558125284,-0.6078,0.0798,-0.2218,4.79,-1.29,-0.26,
18865,1661558125284,-0.7138,0.0085,-0.2115,3.98,-4.68,-0.53,
18866,1661558125285,-0.6542,-0.0858,-0.2012,4.99,-4.92,2.57,
18867,1661558125285,-0.723,-0.0828,-0.1109,5.89,-3.0,-1.08,
18868,1661558125285,-0.8602,-0.0155,-0.0548,6.3,-13.38,-0.07,
18869,1661558125287,-0.849,-0.2401,-0.0909,4.5,-21.42,-1.17,
18870,1661558125287,-0.9218,-0.1312,0.207,7.29,-9.0,4.49,
18871,1661558125287,-0.8949,0.071,0.0546,7.2,-4.66,2.38,
18872,1661558125287,-1.0224,-0.0345,0.0463,5.91,1.84,2.38,
18873,1661558125287,-0.9472,-0.1151,0.2465,7.89,0.89,7.95,
18874,1661558125287,-1.0663,0.0397,0.1484,2.11,-6.95,1.12,
18875,1661558125288,-0.9682,0.0368,0.1728,2.09,-7.9,3.03,
18876,1661558125288,-1.0663,-0.1024,0.1313,4.91,-17.1,4.03,
18877,1661558125289,-1.0375,0.0031,0.0907,4.7,-4.34,2.75,
18878,1661558125289,-1.1752,0.235,0.2128,4.99,-9.15,3.03,
18879,1661558125290,-1.1864,0.1442,0.1049,5.81,-3.23,5.85,
18880,1661558125291,-1.079,-0.055,0.0029,0.5,-0.36,1.47,
18881,1661558125291,-1.14,0.1467,0.2201,-0.2,1.49,4.12,
18882,1661558125292,-1.1884,0.1017,0.0502,-1.69,-10.08,1.12,
18883,1661558125292,-1.1908,-0.014,0.0966,1.19,-12.29,4.76,
18884,1661558125292,-1.2455,-0.0203,0.332,1.89,-8.66,-0.44,
18885,1661558125293,-1.3285,-0.0916,0.2402,1.01,-3.49,-1.45,
18886,1661558125294,-1.3002,-0.1278,-0.0377,-0.3,1.15,1.03,
18887,1661558125294,-1.3017,-0.2054,0.5126,-4.39,10.63,-2.99,
18888,1661558125295,-1.4193,-0.1541,0.3217,-9.09,-0.88,-1.17,
18889,1661558125295,-1.2299,-0.1195,-0.0064,-9.47,-11.87,0.75,
18890,1661558125295,-1.3851,-0.2093,0.3954,-10.19,1.49,1.19,
18891,1661558125295,-1.3666,-0.2269,0.5942,-9.6,-1.14,-0.62,
18892,1661558125296,-1.3373,-0.0203,-0.0543,-11.69,-1.96,1.56,
18893,1661558125296,-1.4047,0.0158,0.6957,-13.79,12.91,2.75,
18894,1661558125297,-1.3339,-0.0042,0.4516,-13.69,0.07,6.67,
18895,1661558125297,-1.2055,0.1691,0.0927,-15.79,7.01,-0.8,
18896,1661558125297,-1.1664,0.1838,0.4282,-11.31,8.17,2.02,
18897,1661558125298,-1.1498,0.1637,0.4911,-10.82,17.9,0.2,
18898,1661558125298,-1.1225,0.276,0.2797,-12.37,15.37,-3.17,
18899,1661558125299,-1.0697,0.4504,-0.0382,-16.37,10.3,-1.63,
18900,1661558125299,-1.0101,0.3591,0.2807,-11.4,10.53,-2.8,
18901,1661558125300,-1.0658,0.2843,0.1469,-6.88,9.97,-1.54,
18902,1661558125300,-0.8969,0.3498,-0.2095,-7.8,6.9,-5.83,
18903,1661558125300,-0.9066,0.4469,0.0522,-6.9,17.05,-10.39,
18904,1661558125301,-0.9486,0.2756,0.3769,-5.9,17.81,-7.0,
18905,1661558125301,-0.8295,0.0715,-0.2476,-6.19,11.05,-7.37,
18906,1661558125302,-0.7518,0.2502,0.0365,-7.4,14.09,-9.56,
18907,1661558125303,-0.8886,0.0636,0.2187,-6.79,12.84,-5.46,
18908,1661558125303,-0.8827,-0.1351,-0.2115,-6.99,10.21,-3.72,
18909,1661558125303,-0.7289,0.048,0.0834,-8.71,11.3,-3.17,
18910,1661558125304,-0.7767,0.0632,0.3676,-4.29,13.01,-4.54,
18911,1661558125304,-0.8368,-0.0164,-0.0367,-4.81,-3.75,-0.44,
18912,1661558125305,-0.7494,-0.1346,-0.2135,-2.1,-0.03,-2.18,
18913,1661558125307,-0.7997,0.0885,0.3749,-5.1,7.16,1.29,
18914,1661558125307,-0.703,0.0998,0.0214,-5.28,5.48,4.58,
18915,1661558125307,-0.7562,0.0153,-0.1583,-3.01,2.19,3.3,
18916,1661558125307,-0.6259,0.09,0.0131,-1.19,10.38,3.39,
18917,1661558125307,-0.6786,0.361,-0.0538,3.5,7.57,3.57,
18918,1661558125307,-0.6566,0.2106,-0.1251,6.59,6.83,4.12,
18919,1661558125308,-0.685,0.1222,-0.1597,5.89,0.83,3.03,
18920,1661558125308,-0.6376,0.1882,-0.0216,-0.18,2.93,1.74,
18921,1661558125310,-0.6508,0.4499,-0.2603,1.4,-11.79,2.93,
18922,1661558125310,-0.6762,0.0773,-0.4185,7.42,-10.51,3.39,
18923,1661558125311,-0.7855,0.1349,0.1537,9.29,0.66,-1.72,
18924,1661558125311,-0.8124,0.2575,0.142,10.09,2.42,-3.81,
18925,1661558125311,-0.7885,0.1711,-0.3521,10.79,-2.91,-0.35,
18926,1661558125312,-0.8417,0.0651,0.0615,7.11,1.5,-2.45,
18927,1661558125312,-0.9203,-0.0745,0.1542,4.59,-4.34,-7.37,
18928,1661558125312,-0.9418,-0.0697,-0.3038,4.2,-17.7,-3.63,
18929,1661558125313,-0.9804,-0.0491,-0.0865,4.4,-7.81,1.29,
18930,1661558125313,-1.0819,-0.2767,0.4775,7.42,2.77,4.76,
18931,1661558125313,-1.0809,-0.2225,-0.0006,3.69,-3.32,0.84,
18932,1661558125314,-1.0282,-0.1878,0.0395,3.71,-5.52,-0.44,
18933,1661558125314,-1.2396,-0.4666,0.6078,0.4,-4.76,-0.53,
18934,1661558125315,-1.1854,-0.325,0.3735,0.29,-21.25,4.95,
18935,1661558125315,-1.1664,-0.014,-0.0592,-2.5,-15.83,2.29,
18936,1661558125316,-1.2162,-0.2186,0.4238,-2.99,0.16,6.85,
18937,1661558125316,-1.1747,-0.1746,0.058,-4.12,-4.94,6.21,
18938,1661558125317,-1.2392,0.1403,0.1474,-4.79,1.84,3.3,
18939,1661558125317,-1.2455,0.0099,0.1025,-2.1,-4.77,2.75,
18940,1661558125317,-1.2968,-0.0184,0.0654,-4.18,-3.32,0.66,
18941,1661558125318,-1.2724,0.0744,0.2802,-3.69,-5.35,-1.26,
18942,1661558125318,-1.3349,0.2175,0.1127,-3.6,-11.52,1.65,
18943,1661558125319,-1.2597,0.1725,0.1689,-4.93,-1.81,2.48,
18944,1661558125319,-1.3476,0.071,0.4506,-7.99,6.23,1.74,
18945,1661558125319,-1.3065,0.0939,0.4194,-9.28,6.75,-0.53,
18946,1661558125321,-1.3334,0.2292,0.2338,-11.02,9.69,-1.54,
18947,1661558125321,-1.3256,0.0426,0.3569,-9.49,5.47,-3.81,
18948,1661558125322,-1.3969,0.134,0.4057,-7.8,4.37,-4.18,
18949,1661558125322,-1.3344,0.1701,0.4516,-10.59,9.21,-9.47,
18950,1661558125323,-1.31,-0.0311,0.3554,-11.69,10.21,-4.63,
18951,1661558125323,-1.1425,-0.0506,0.1225,-13.0,15.69,-5.46,
18952,1661558125324,-1.0907,0.0983,0.3075,-13.2,17.74,-3.26,
18953,1661558125324,-1.2118,-0.076,0.2348,-14.28,13.1,-3.9,
18954,1661558125324,-1.0248,-0.076,-0.0469,-15.2,3.68,-4.18,
18955,1661558125324,-1.1649,0.1066,0.2509,-16.68,5.06,-2.27,
18956,1661558125325,-1.0375,0.1164,0.2177,-14.59,11.07,-2.18,
18957,1661558125325,-0.9472,0.0378,-0.147,-12.6,3.77,-0.35,
18958,1661558125326,-1.0004,0.0295,0.0907,-10.48,15.8,-2.9,
18959,1661558125327,-0.7934,0.2629,0.3359,-11.29,8.34,-0.99,
18960,1661558125327,-0.8993,0.1481,-0.0338,-9.6,14.94,-3.17,
18961,1661558125328,-0.7714,0.2541,0.0087,-10.5,8.67,-1.08,
18962,1661558125328,-0.8871,0.3053,0.0673,-9.9,6.49,-2.9,
18963,1661558125329,-0.8397,0.257,0.1786,-6.7,9.79,-3.17,
18964,1661558125329,-0.8563,0.1926,-0.024,-3.49,6.08,2.66,
18965,1661558125329,-0.7377,0.1672,-0.1798,-2.3,12.4,-4.27,
18966,1661558125329,-0.8334,0.3664,0.1552,-7.9,12.15,1.19,
18967,1661558125330,-0.6972,0.1862,0.0151,-6.8,9.37,-4.91,
18968,1661558125330,-0.725,0.1418,-0.0445,-2.39,1.58,-2.8,
18969,1661558125331,-0.6854,0.2404,0.0859,-1.98,5.56,-1.17,
18970,1661558125331,-0.6615,0.1862,0.0448,-0.41,0.22,-0.62,
18971,1661558125332,-0.6454,0.1222,-0.1236,2.99,4.61,0.66,
18972,1661558125332,-0.7006,0.1281,0.0297,3.5,4.03,-4.09,
18973,1661558125332,-0.7362,0.0944,-0.0294,4.09,7.34,3.3,
18974,1661558125333,-0.7147,0.0866,-0.2042,4.79,-0.38,1.38,
18975,1661558125333,-0.6215,0.0094,-0.1861,5.4,-0.54,-2.9,
18976,1661558125333,-0.7084,-0.0472,-0.1788,3.98,-5.37,2.29,
18977,1661558125335,-0.5707,-0.0765,-0.3609,4.7,-10.84,2.11,
18978,1661558125335,-0.7221,-0.0882,-0.169,4.4,-6.13,9.13,
18979,1661558125336,-0.8837,-0.0726,0.1352,1.21,-5.35,3.67,
18980,1661558125336,-0.8251,-0.1414,-0.21,6.52,-11.68,6.12,
18981,1661558125336,-0.9174,-0.1273,0.1845,6.1,-9.65,3.3,
18982,1661558125336,-0.953,0.0143,0.2323,6.81,-12.61,-0.44,
18983,1661558125337,-1.0014,-0.0252,0.1108,6.1,-7.12,3.76,
18984,1661558125337,-0.9433,0.0051,0.1044,4.0,-3.57,-3.26,
18985,1661558125338,-1.0673,-0.0116,0.2323,3.82,-1.46,2.29,
18986,1661558125339,-1.1249,-0.013,0.1913,2.41,-3.66,2.11,
18987,1661558125339,-1.12,0.0588,-0.0137,3.69,-9.82,5.94,
18988,1661558125339,-1.058,0.0251,0.0986,4.91,-4.5,1.19,
18989,1661558125339,-1.1928,0.112,0.2782,2.21,-7.04,4.31,
18990,1661558125340,-1.1259,0.0851,0.039,2.3,-3.99,7.4,
18991,1661558125340,-1.0834,0.0807,0.0429,0.2,-3.41,2.84,
18992,1661558125341,-1.1102,0.1354,0.1323,-0.81,2.42,-0.07,
18993,1661558125341,-1.1893,0.0182,0.0781,-3.11,-7.14,1.47,
18994,1661558125341,-1.1898,-0.0457,0.1181,-1.78,-5.59,-4.91,
18995,1661558125342,-1.2411,-0.0291,0.4052,-1.89,-0.77,-4.54,
18996,1661558125342,-1.3207,-0.1351,0.0287,-3.51,-0.96,-2.64,
18997,1661558125343,-1.2802,-0.1077,-0.0631,-5.69,-5.02,-2.71,
18998,1661558125343,-1.2606,-0.1082,0.5058,-9.49,4.98,-0.35,
18999,1661558125344,-1.4359,-0.2181,0.393,-10.1,-3.23,-6.19,
19000,1661558125344,-1.1747,-0.1082,-0.0928,-7.22,-3.5,-3.54,
19001,1661558125345,-1.4652,-0.1566,0.7323,-11.08,9.62,-2.45,
19002,1661558125345,-1.2142,-0.1893,0.2626,-10.88,3.53,-1.35,
19003,1661558125346,-1.3602,-0.0467,0.0966,-16.81,3.51,-0.53,
19004,1661558125346,-1.3026,0.0217,0.6679,-17.9,5.82,-0.16,
19005,1661558125347,-1.328,0.0339,0.4448,-15.09,-3.9,0.29,
19006,1661558125348,-1.1503,0.0622,0.0595,-10.1,10.63,1.03,
19007,1661558125348,-1.1845,0.153,0.3344,-14.19,15.52,-2.0,
19008,1661558125348,-1.0785,0.1759,0.3681,-16.59,18.42,-2.36,
19009,1661558125349,-1.1142,0.2931,0.0502,-18.49,10.7,-0.16,
19010,1661558125349,-0.9769,0.3761,0.1069,-19.09,6.58,-0.8,
19011,1661558125349,-1.0365,0.384,0.2729,-13.98,12.5,-2.0,
19012,1661558125352,-1.058,0.2843,0.1674,-9.29,15.87,-3.08,
19013,1661558125352,-0.9325,0.2878,-0.1256,-8.19,14.26,-3.9,
19014,1661558125352,-0.9101,0.4484,0.2822,-11.58,22.31,-4.09,
19015,1661558125352,-0.8705,0.1613,0.018,-10.3,14.18,-6.63,
19016,1661558125352,-0.7069,0.048,-0.336,-6.0,12.0,-5.37,
19017,1661558125353,-0.7982,0.1608,0.1664,-5.9,14.78,-6.73,
19018,1661558125353,-0.8578,0.0812,0.2294,-8.41,16.21,-5.92,
19019,1661558125353,-0.9408,-0.16,-0.2139,-8.18,3.7,-5.09,
19020,1661558125354,-0.703,0.0231,0.0409,-8.28,7.25,-2.99,
19021,1661558125354,-0.806,0.0177,0.4672,-7.9,10.55,-1.9,
19022,1661558125355,-0.6918,-0.1063,-0.2662,-4.12,-0.62,-3.9,
19023,1661558125355,-0.745,-0.1009,0.0585,-9.09,4.96,3.39,
19024,1661558125356,-0.7894,0.0339,0.4125,-7.48,2.69,1.29,
19025,1661558125356,-0.8222,0.133,0.1884,-6.12,-3.0,2.66,
19026,1661558125356,-0.7484,0.068,-0.1627,-0.58,1.0,-0.07,
19027,1661558125357,-0.5912,0.2341,-0.1124,1.98,8.43,-1.26,
19028,1661558125357,-0.6698,0.4069,-0.0963,2.59,13.59,2.84,
19029,1661558125358,-0.6185,0.2507,-0.2032,4.7,7.16,-0.53,
19030,1661558125358,-0.6405,0.1066,-0.3536,3.01,-2.99,1.29,
19031,1661558125358,-0.684,0.4435,-0.026,0.69,-5.96,-0.16,
19032,1661558125359,-0.6854,0.3063,-0.3555,2.58,-18.21,0.29,
19033,1661558125359,-0.6854,0.092,-0.1661,6.2,-12.29,4.49,
19034,1661558125361,-0.7426,0.1916,0.1259,8.9,3.01,2.38,
19035,1661558125361,-0.8485,0.2448,0.0068,9.2,-1.48,-3.44,
19036,1661558125361,-0.8353,0.0524,-0.1734,6.97,-4.77,-2.27,
19037,1661558125361,-0.9213,-0.0496,0.3193,4.4,0.65,2.29,
19038,1661558125362,-0.9481,-0.0872,0.2392,4.2,-6.19,-0.9,
19039,1661558125362,-0.9682,-0.0946,-0.2965,5.69,-6.36,2.38,
19040,1661558125362,-0.9672,-0.201,0.1088,7.49,-0.12,-0.44,
19041,1661558125363,-1.1093,-0.3402,0.1567,1.8,-6.46,-4.27,
19042,1661558125363,-1.0902,-0.1561,-0.2149,1.6,-14.41,-1.54,
19043,1661558125364,-1.2279,-0.3314,0.2983,3.17,-12.39,1.03,
19044,1661558125364,-1.2597,-0.3861,0.4506,2.09,-11.61,3.39,
19045,1661558125365,-1.037,-0.1439,0.0282,-4.2,-13.8,6.49,
19046,1661558125365,-1.2738,-0.1239,0.2157,-8.3,-6.63,2.2,
19047,1661558125366,-1.0883,-0.2171,0.308,-8.89,-6.21,6.85,
19048,1661558125366,-1.2938,-0.0638,0.1298,-2.59,-6.3,2.75,
19049,1661558125367,-1.2846,0.09,0.3608,-1.78,-2.89,1.83,
19050,1661558125367,-1.2953,0.0397,0.226,-5.2,-8.57,5.48,
19051,1661558125368,-1.2094,0.0397,0.1625,-5.48,-1.2,5.48,
19052,1661558125368,-1.3681,0.0817,0.164,-8.7,-2.24,4.67,
19053,1661558125369,-1.2309,0.0671,0.142,-8.5,1.16,3.03,
19054,1661558125369,-1.2821,0.1213,0.2333,-10.59,0.23,5.39,
19055,1661558125369,-1.3778,0.1149,0.3505,-11.4,-3.75,2.57,
19056,1661558125370,-1.2831,0.1042,0.2001,-10.6,-5.78,-3.17,
19057,1661558125370,-1.2938,0.0881,0.4882,-11.7,6.64,-3.08,
19058,1661558125371,-1.2645,0.027,0.3329,-10.7,5.32,-1.81,
19059,1661558125371,-1.3246,0.0622,0.1694,-10.3,8.95,-5.09,
19060,1661558125372,-1.3275,0.0763,0.497,-14.39,12.73,-4.82,
19061,1661558125372,-1.2904,-0.0247,0.433,-14.69,7.5,-3.63,
19062,1661558125373,-1.1102,0.0124,0.0239,-12.31,8.67,-4.82,
19063,1661558125373,-1.098,0.0055,0.4467,-12.08,16.13,-3.35,
19064,1661558125374,-1.2011,-0.0628,0.2021,-16.17,14.61,-2.27,
19065,1661558125374,-0.9164,-0.0233,-0.1231,-17.2,9.53,-0.99,
19066,1661558125375,-1.1156,0.0837,0.4926,-20.6,9.04,1.19,
19067,1661558125375,-1.0507,0.0876,0.3935,-15.18,9.88,-0.99,
19068,1661558125375,-0.9589,0.0715,-0.2252,-11.38,6.49,-1.9,
19069,1661558125376,-0.9931,0.1467,0.3432,-12.8,21.61,-5.18,
19070,1661558125376,-0.9691,0.2101,0.2358,-14.19,10.64,-2.18,
19071,1661558125377,-0.8148,0.2697,-0.0997,-13.9,7.74,-2.54,
19072,1661558125377,-0.8222,0.2375,-0.0787,-9.69,4.22,-3.26,
19073,1661558125379,-0.8715,0.2067,0.0732,-6.19,22.97,-3.26,
19074,1661558125379,-0.8261,0.2575,0.1718,-5.11,21.87,-7.82,
19075,1661558125379,-0.8202,0.2477,-0.2374,-6.32,12.23,-3.44,
19076,1661558125379,-0.7592,0.3239,0.0737,-9.6,3.44,-5.37,
19077,1661558125380,-0.8051,0.3415,0.1821,-8.82,3.35,2.38,
19078,1661558125380,-0.6815,0.2594,-0.0054,-4.2,-1.55,-2.8,
19079,1661558125380,-0.7201,0.1784,-0.1866,-3.29,6.99,0.2,
19080,1661558125381,-0.702,0.2082,0.2416,-2.3,12.5,-2.18,
19081,1661558125381,-0.6991,0.1916,0.0068,-1.39,10.55,-6.19,
19082,1661558125382,-0.6464,0.1725,-0.1964,-0.5,2.25,-2.27,
19083,1661558125382,-0.6762,0.008,-0.0753,2.0,1.5,-5.73,
19084,1661558125383,-0.7147,-0.0199,-0.0709,3.3,0.39,0.93,
19085,1661558125383,-0.6093,0.1003,-0.3531,4.79,-6.21,-1.08,
19086,1661558125384,-0.7304,-0.0828,-0.2222,6.0,0.89,1.74,
19087,1661558125384,-0.7245,-0.1082,-0.1578,1.3,-1.81,-1.35,
19088,1661558125385,-0.7787,-0.0882,-0.2603,0.79,-2.65,-3.08,
19089,1661558125385,-0.6874,-0.0584,-0.0743,4.41,-6.02,0.75,
19090,1661558125385,-0.744,-0.1346,-0.0347,2.21,-33.17,2.38,
19091,1661558125386,-0.932,-0.2298,-0.0548,2.02,-21.85,5.85,
19092,1661558125386,-0.9149,0.0368,0.3329,3.17,-7.06,-0.71,
19093,1661558125387,-1.0565,-0.0238,0.04,7.19,3.03,5.94,
19094,1661558125387,-0.9462,-0.0052,0.0942,6.59,6.9,3.03,
19095,1661558125388,-0.9559,0.0031,0.1469,2.4,4.38,1.56,
19096,1661558125388,-0.9472,0.0207,0.1596,-0.99,1.26,6.31,
19097,1661558125388,-1.099,-0.0697,-0.0245,2.92,-11.77,3.48,
19098,1661558125389,-1.1122,0.0207,0.1879,3.5,-9.59,4.4,
19099,1661558125389,-1.1566,0.175,0.311,2.18,-11.96,-1.72,
19100,1661558125390,-1.1478,0.1813,0.0927,3.5,-9.65,-2.71,
19101,1661558125390,-1.1078,-0.0516,-0.0196,0.08,-8.49,3.48,
19102,1661558125391,-1.1098,0.2106,0.2729,-2.1,0.16,-1.17,
19103,1661558125391,-1.1996,0.2199,0.2504,-4.2,-4.18,-3.08,
19104,1661558125392,-1.2553,-0.0916,0.039,-1.31,-6.46,0.93,
19105,1661558125392,-1.2431,-0.1063,0.3481,-4.99,-4.08,-6.56,
19106,1661558125392,-1.306,0.0016,0.2338,-5.98,-1.12,-3.63,
19107,1661558125393,-1.2533,-0.1326,-0.1412,-8.28,-5.35,-6.19,
19108,1661558125393,-1.2362,-0.2528,0.4125,-7.0,3.96,-2.45,
19109,1661558125395,-1.4262,-0.1951,0.3876,-11.29,1.33,-1.72,
19110,1661558125395,-1.3461,-0.0804,-0.0377,-11.08,-12.11,0.39,
19111,1661558125395,-1.3685,-0.1688,0.2524,-12.62,1.58,0.39,
19112,1661558125395,-1.4105,-0.2015,0.8471,-14.19,0.98,-1.17,
19113,1661558125396,-1.3129,-0.0623,-0.1368,-16.3,-9.17,-5.64,
19114,1661558125396,-1.3339,0.0431,0.5092,-13.5,15.03,-5.18,
19115,1661558125397,-1.3627,-0.0101,0.7011,-14.28,10.14,-7.73,
19116,1661558125397,-1.1176,0.1222,0.0273,-19.1,7.33,-0.07,
19117,1661558125398,-1.2142,0.2033,0.3613,-15.4,8.34,-6.82,
19118,1661558125398,-1.1859,0.1872,0.5302,-13.79,18.15,-2.99,
19119,1661558125399,-1.101,0.2297,0.2255,-20.4,15.46,-5.46,
19120,1661558125399,-1.0477,0.4606,-0.0797,-19.29,12.49,-3.44,
19121,1661558125400,-0.994,0.3034,0.1464,-15.98,10.9,-0.99,
19122,1661558125400,-1.0028,0.238,0.185,-11.4,14.85,-3.72,
19123,1661558125401,-0.912,0.3161,-0.2188,-13.99,8.26,-3.44,
19124,1661558125401,-0.8798,0.2941,0.0947,-13.92,16.62,-7.92,
19125,1661558125401,-0.8959,0.0573,0.1982,-9.92,13.84,-4.27,
19126,1661558125403,-0.8798,0.008,-0.0494,-11.38,12.41,-3.54,
19127,1661558125403,-0.7201,0.1208,-0.2384,-10.7,9.77,-4.36,
19128,1661558125404,-0.8046,0.0036,0.1313,-9.7,13.33,-0.71,
19129,1661558125404,-0.9794,-0.2166,-0.0167,-9.29,5.97,-0.9,
19130,1661558125404,-0.6908,0.0021,-0.0489,-8.99,2.93,0.75,
19131,1661558125405,-0.8202,-0.0238,0.3871,-11.6,2.93,-2.18,
19132,1661558125405,-0.9159,-0.096,0.2773,-10.89,2.92,1.56,
19133,1661558125406,-0.7016,-0.1556,-0.2496,-8.09,7.25,3.12,
19134,1661558125406,-0.745,0.0505,0.1264,-6.9,12.23,0.75,
19135,1661558125406,-0.7968,0.1193,0.3188,-7.09,3.19,3.12,
19136,1661558125407,-0.7299,0.0846,-0.1168,-6.79,-2.3,4.95,
19137,1661558125407,-0.643,0.1227,-0.2237,-5.9,-7.73,8.78,
19138,1661558125407,-0.6474,0.3415,-0.0826,-1.8,6.64,2.84,
19139,1661558125408,-0.6288,0.2555,-0.0885,4.01,9.45,9.4,
19140,1661558125408,-0.5873,0.216,-0.4,0.92,3.62,3.03,
19141,1661558125409,-0.6708,0.4069,-0.0157,-1.2,7.85,2.2,
19142,1661558125409,-0.7123,0.4167,-0.0592,-0.21,-9.76,8.41,
19143,1661558125411,-0.6962,0.1344,-0.3736,2.7,-13.91,2.93,
19144,1661558125411,-0.7479,0.1794,0.0668,4.5,-6.37,2.48,
19145,1661558125411,-0.85,0.195,-0.0377,6.0,-4.34,0.75,
19146,1661558125411,-0.7968,0.0719,-0.2896,8.21,-4.66,1.03,
19147,1661558125411,-0.8783,0.0295,0.0566,4.72,4.22,-4.36,
19148,1661558125412,-0.933,-0.0745,0.2299,1.3,0.98,-7.0,
19149,1661558125412,-0.9955,-0.1654,-0.2618,-0.5,-11.27,1.03,
19150,1661558125413,-1.0419,-0.1781,0.2216,2.02,-7.29,-0.9,
19151,1661558125413,-1.0302,-0.2625,0.4272,4.59,-6.79,3.3,
19152,1661558125414,-1.0966,-0.3001,-0.0509,1.1,-10.0,6.12,
19153,1661558125414,-1.0604,-0.2176,-0.1124,-2.59,-11.35,1.74,
19154,1661558125415,-1.2855,-0.327,0.5688,-2.39,-9.0,1.93,
19155,1661558125415,-1.0936,-0.1488,0.058,-4.68,-20.75,3.21,
19156,1661558125415,-1.2704,-0.1019,0.1152,-6.0,-12.46,6.49,
19157,1661558125416,-1.0888,-0.1561,0.3456,-6.9,-1.37,5.48,
19158,1661558125416,-1.1757,-0.0604,0.1425,-7.7,-6.13,3.03,
19159,1661558125417,-1.225,0.1012,0.1406,-7.8,-1.55,5.39,
19160,1661558125417,-1.2684,0.0583,0.1532,-8.61,-7.73,0.11,
19161,1661558125418,-1.1762,0.1227,0.1288,-6.8,-2.48,2.93,
19162,1661558125418,-1.3197,0.0905,0.0341,-6.79,-3.73,-2.8,
19163,1661558125419,-1.3192,0.1291,-0.0382,-7.8,-3.99,1.93,
19164,1661558125419,-1.2699,0.172,0.2529,-11.4,0.49,-0.53,
19165,1661558125421,-1.3656,0.1139,0.2983,-11.72,-0.12,-1.63,
19166,1661558125421,-1.3002,0.0353,0.1552,-11.69,-2.73,-4.18,
19167,1661558125421,-1.3222,0.0636,0.5888,-13.0,10.3,-7.82,
19168,1661558125422,-1.2875,-0.0047,0.3329,-11.79,4.03,-3.35,
19169,1661558125422,-1.3002,-0.0096,0.2045,-14.08,6.49,-5.64,
19170,1661558125423,-1.3466,-0.0145,0.5292,-16.01,12.91,-6.1,
19171,1661558125423,-1.2567,-0.0555,0.4677,-16.11,11.46,-3.54,
19172,1661558125424,-1.1576,-0.0374,-0.064,-15.69,5.73,-7.46,
19173,1661558125424,-1.161,-0.0731,0.4081,-19.19,12.91,-3.08,
19174,1661558125425,-1.2753,-0.097,0.3398,-17.88,7.68,-3.26,
19175,1661558125425,-0.8607,-0.0467,-0.2003,-18.48,1.84,-2.99,
19176,1661558125426,-1.0507,0.0656,0.3622,-17.29,15.8,-6.73,
19177,1661558125426,-0.8529,0.11,0.1718,-17.29,13.75,-5.92,
19178,1661558125427,-0.9667,0.0402,-0.1617,-18.8,5.73,-5.28,
19179,1661558125427,-0.9491,0.1149,0.1664,-19.9,10.03,-7.46,
19180,1661558125428,-0.9852,0.2209,0.3422,-17.27,1.0,-7.92,
19181,1661558125428,-0.8593,0.2326,0.0795,-12.6,14.53,-7.64,
19182,1661558125429,-0.8148,0.2311,-0.1304,-8.39,16.71,-6.82,
19183,1661558125429,-0.7123,0.2253,0.1332,-11.92,29.15,-3.9,
19184,1661558125429,-0.8314,0.2536,0.019,-12.69,10.7,-6.91,
19185,1661558125430,-0.747,0.1501,-0.1563,-9.99,2.51,-3.63,
19186,1661558125430,-0.768,0.2321,0.0356,-10.39,0.98,-7.82,
19187,1661558125431,-0.7958,0.2702,0.1449,-7.2,12.17,-6.73,
19188,1661558125431,-0.6845,0.1418,-0.2271,-6.12,9.53,-2.9,
19189,1661558125431,-0.6425,0.091,-0.0836,-6.1,12.99,-9.56,
19190,1661558125431,-0.7274,0.1203,0.225,-5.19,8.35,-0.62,
19191,1661558125432,-0.7606,0.1281,0.0693,-4.0,2.17,-4.18,
19192,1661558125432,-0.7099,0.0549,-0.2296,-0.3,-3.58,2.11,
19193,1661558125433,-0.6591,-0.0355,-0.0098,-0.7,4.03,0.39,
19194,1661558125433,-0.7157,0.0558,-0.1134,-2.0,2.34,-0.35,
19195,1661558125434,-0.5697,-0.0179,-0.3702,-0.11,-0.77,-1.63,
19196,1661558125434,-0.8183,-0.1302,-0.0494,2.2,-4.51,-1.63,
19197,1661558125435,-0.5145,-0.0423,-0.2105,-0.49,-17.19,4.31,
19198,1661558125435,-0.8456,0.0212,-0.2677,-3.08,-16.34,4.67,
19199,1661558125435,-0.9218,-0.0604,0.0141,-0.2,5.71,3.67,
19200,1661558125436,-0.7626,-0.2547,-0.3453,4.59,-3.08,6.95,
19201,1661558125436,-0.8524,0.026,0.1044,0.11,5.15,7.86,
19202,1661558125437,-0.9701,0.0778,0.1542,-2.79,-9.07,1.38,
19203,1661558125437,-1.0736,-0.0584,-0.0113,-0.2,-13.06,7.77,
19204,1661558125438,-0.9657,0.0207,0.0986,-0.3,-14.06,3.3,
19205,1661558125438,-1.056,0.112,0.2133,0.41,-3.23,-1.72,
19206,1661558125438,-0.9921,-0.0091,0.0307,0.6,-1.72,4.12,
19207,1661558125439,-1.1273,0.0065,0.0448,-0.18,-5.43,2.2,
19208,1661558125439,-1.1176,0.0397,0.2348,-5.48,-5.76,2.57,
19209,1661558125440,-1.2206,0.2668,0.2778,-3.49,-10.6,1.38,
19210,1661558125440,-1.1615,0.0217,0.0663,-1.59,-9.75,2.29,
19211,1661558125441,-1.1322,0.0632,0.1381,-1.19,-4.66,2.84,
19212,1661558125441,-1.1669,0.214,0.1938,-4.99,-1.63,-3.9,
19213,1661558125442,-1.1781,0.0197,0.0732,-5.78,-4.59,-4.73,
19214,1661558125442,-1.2548,-0.161,0.0658,-5.8,0.33,-4.54,
19215,1661558125443,-1.2343,0.0158,0.2992,-5.78,-2.47,-5.55,
19216,1661558125443,-1.4008,-0.0902,0.1835,-6.68,-4.66,-4.27,
19217,1661558125444,-1.247,-0.2547,0.0668,-11.79,-10.6,-8.37,
19218,1661558125445,-1.4525,-0.2088,0.5102,-11.89,2.35,0.57,
19219,1661558125445,-1.3422,-0.0877,0.1806,-12.79,-1.46,-5.73,
19220,1661558125445,-1.1708,-0.1771,-0.0411,-14.78,-2.3,-3.35,
19221,1661558125445,-1.4188,-0.2288,0.6684,-15.27,10.14,-3.26,
19222,1661558125446,-1.2362,-0.0638,0.412,-16.39,-5.37,-0.9,
19223,1661558125446,-1.3212,-0.0184,0.0175,-18.69,0.05,2.11,
19224,1661558125447,-1.3588,-0.013,0.7778,-19.88,12.75,-2.45,
19225,1661558125447,-1.2689,0.0348,0.1708,-16.08,11.07,1.83,
19226,1661558125449,-1.2147,0.2702,0.0453,-18.49,9.97,-1.54,
19227,1661558125449,-1.1644,0.2189,0.4687,-18.69,14.03,-6.63,
19228,1661558125450,-1.0966,0.0842,0.3964,-19.0,6.57,-1.54,
19229,1661558125450,-1.1283,0.257,0.0385,-18.8,6.99,-7.73,
19230,1661558125451,-1.0243,0.2985,0.1528,-19.99,6.9,-4.82,
19231,1661558125451,-1.0785,0.194,0.3466,-17.68,15.46,-6.63,
19232,1661558125451,-0.9852,0.2643,0.1093,-14.17,15.89,-6.56,
19233,1661558125452,-0.8637,0.215,-0.1558,-13.99,12.4,-7.27,
19234,1661558125452,-0.8632,0.1784,0.2856,-16.3,14.03,-7.27,
19235,1661558125453,-0.9369,0.0085,0.2612,-13.59,14.79,1.47,
19236,1661558125453,-0.8602,-0.0902,-0.2242,-13.27,10.72,-3.81,
19237,1661558125454,-0.7294,0.1032,-0.1832,-13.01,11.56,-1.63,
19238,1661558125454,-0.9057,-0.1243,0.1782,-15.09,7.16,-4.09,
19239,1661558125455,-0.87,-0.1717,-0.1832,-13.0,-0.71,-0.53,
19240,1661558125455,-0.8236,-0.0721,-0.0069,-9.4,8.67,-0.07,
19241,1661558125456,-0.8593,-0.1224,0.4335,-12.5,14.18,3.67,
19242,1661558125456,-0.7294,-0.0867,-0.0572,-12.69,-1.48,4.4,
19243,1661558125456,-0.7465,0.0739,-0.0377,-12.39,-2.48,4.76,
19244,1661558125456,-0.5272,0.0968,0.2407,-7.99,7.5,6.58,
19245,1661558125456,-0.8339,0.0021,0.1708,-4.9,7.92,4.67,
19246,1661558125457,-0.6337,0.1237,-0.2178,-6.29,7.76,6.4,
19247,1661558125457,-0.6732,0.3581,-0.1348,-5.2,2.35,3.48,
19248,1661558125458,-0.664,0.3298,-0.0484,-3.91,0.39,5.3,
19249,1661558125459,-0.6317,0.2077,-0.4215,-2.5,-12.05,3.76,
19250,1661558125459,-0.577,0.2306,-0.3082,-2.5,2.42,0.2,
19251,1661558125459,-0.7538,0.3752,-0.1759,-2.18,-5.35,3.21,
19252,1661558125461,-0.7387,0.1716,-0.3057,1.19,-7.55,0.11,
19253,1661558125461,-0.8041,0.1452,0.0097,1.01,-4.16,5.3,
19254,1661558125461,-0.8646,0.1652,0.3066,1.5,-2.47,-0.71,
19255,1661558125461,-0.7694,0.0656,-0.3087,1.42,-14.73,-1.45,
19256,1661558125461,-0.8612,0.0031,0.0556,0.6,-1.2,-0.53,
19257,1661558125462,-0.9325,-0.0526,0.3715,3.71,3.96,-0.26,
19258,1661558125462,-0.9652,-0.1468,0.0214,2.7,-5.78,0.75,
19259,1661558125463,-0.9716,-0.1512,-0.234,-0.49,-6.86,-0.9,
19260,1661558125463,-0.9877,-0.1619,0.37,-3.48,-7.98,4.76,
19261,1661558125465,-1.1019,-0.2601,-0.0303,-3.2,-15.25,6.58,
19262,1661558125465,-0.9975,-0.1951,-0.2838,-3.72,-16.95,8.87,
19263,1661558125466,-1.268,-0.3167,0.5317,-4.2,-5.53,-0.07,
19264,1661558125466,-1.0985,-0.161,0.162,-5.71,-17.54,-0.35,
19265,1661558125467,-1.265,-0.0399,0.0976,-7.9,-15.01,3.12,
19266,1661558125467,-1.162,-0.0765,0.3476,-9.38,-5.52,0.57,
19267,1661558125468,-1.1737,-0.0614,0.2524,-11.02,-5.53,1.65,
19268,1661558125468,-1.1679,0.1359,0.0961,-11.79,0.14,-4.18,
19269,1661558125468,-1.2733,0.0158,0.1586,-7.7,-3.25,-2.09,
19270,1661558125469,-1.2489,0.1047,0.2812,-7.09,1.16,-2.09,
19271,1661558125469,-1.3456,0.1183,0.0849,-10.38,-3.4,0.84,
19272,1661558125470,-1.3168,0.1681,-0.0562,-12.79,-7.55,-0.71,
19273,1661558125470,-1.225,0.1554,0.1889,-13.38,-0.27,-2.09,
19274,1661558125471,-1.3051,0.0837,0.349,-14.98,3.03,-2.45,
19275,1661558125471,-1.3104,0.0715,0.204,-17.21,-2.24,-5.46,
19276,1661558125472,-1.3158,0.0563,0.4282,-13.59,4.61,-7.27,
19277,1661558125472,-1.3368,-0.0535,0.4731,-14.59,4.29,-3.44,
19278,1661558125473,-1.3109,0.0246,0.3608,-18.39,5.06,-8.01,
19279,1661558125473,-1.33,0.0378,0.3813,-19.09,10.03,-6.82,
19280,1661558125474,-1.2191,-0.0994,0.4062,-18.49,12.5,-10.92,
19281,1661558125474,-1.1986,-0.0457,0.0678,-17.39,9.44,-10.74,
19282,1661558125474,-1.1332,-0.0604,0.268,-16.3,12.5,-5.64,
19283,1661558125474,-1.2748,-0.1409,0.3144,-19.09,9.11,-1.9,
19284,1661558125474,-0.8573,-0.0736,-0.0977,-23.51,0.48,-1.17,
19285,1661558125475,-1.056,0.0988,0.3022,-25.3,9.97,0.48,
19286,1661558125475,-0.8856,0.0505,0.1899,-19.38,17.06,-2.64,
19287,1661558125476,-0.9701,-0.0404,-0.1944,-16.89,9.79,-1.26,
19288,1661558125476,-0.9672,0.1359,0.2338,-20.8,11.24,-3.9,
19289,1661558125477,-0.973,0.2389,0.3324,-17.7,2.1,0.2,
19290,1661558125477,-0.8036,0.1178,-0.0191,-18.17,14.79,-2.99,
19291,1661558125478,-0.81,0.2697,-0.004,-17.0,16.97,-1.17,
19292,1661558125478,-0.7079,0.2018,0.0458,-12.8,24.24,-2.8,
19293,1661558125479,-0.8349,0.1628,-0.0137,-10.5,14.68,-2.36,
19294,1661558125479,-0.786,0.1603,-0.0054,-10.3,4.72,0.39,
19295,1661558125480,-0.8104,0.2126,0.0512,-14.78,-0.94,-3.17,
19296,1661558125480,-0.7894,0.2775,0.0424,-12.28,9.54,-0.35,
19297,1661558125480,-0.6859,0.0929,-0.0782,-8.19,11.46,-0.62,
19298,1661558125482,-0.6205,0.1408,-0.0455,-9.2,13.51,4.22,
19299,1661558125482,-0.7025,0.1159,0.1078,-8.1,8.5,-3.81,
19300,1661558125483,-0.7748,-0.0037,-0.0631,-3.91,4.37,3.12,
19301,1661558125483,-0.7421,0.0412,-0.0958,-4.5,-0.45,1.19,
19302,1661558125484,-0.643,0.0529,-0.0758,-3.39,3.03,4.67,
19303,1661558125484,-0.7216,0.0021,-0.1524,-5.49,4.05,2.29,
19304,1661558125485,-0.5892,-0.0741,-0.338,-2.1,0.16,0.39,
19305,1661558125485,-0.8324,-0.1375,-0.1417,-3.91,-3.08,0.02,
19306,1661558125485,-0.7265,-0.0682,-0.1094,-2.1,-17.21,2.93,
19307,1661558125485,-0.83,-0.0086,-0.1939,-5.98,-20.06,4.86,
19308,1661558125486,-0.9223,-0.078,0.0595,-3.01,6.23,10.14,
19309,1661558125486,-0.7265,-0.2034,-0.399,1.6,-1.38,11.97,
19310,1661558125487,-0.8578,0.0505,0.1264,-5.29,0.39,9.86,
19311,1661558125487,-0.9906,0.0759,0.2162,-5.61,-12.29,6.85,
19312,1661558125488,-1.0551,-0.0345,-0.0343,-5.1,-20.66,1.65,
19313,1661558125489,-0.9149,0.1091,0.0839,0.7,-11.35,3.21,
19314,1661558125489,-1.0321,0.1408,0.2118,-0.11,5.06,-1.26,
19315,1661558125489,-0.9335,0.0407,-0.1422,-0.58,-0.44,0.39,
19316,1661558125489,-1.1474,0.111,0.1044,-4.61,0.05,2.93,
19317,1661558125490,-1.1337,0.0431,0.332,-6.91,-4.44,1.38,
19318,1661558125490,-1.2118,0.1872,0.1576,-5.2,-12.98,2.02,
19319,1661558125490,-1.1239,0.1247,0.0536,-3.4,-7.21,4.4,
19320,1661558125493,-1.1234,0.0109,0.1069,-2.9,-4.83,2.75,
19321,1661558125493,-1.1464,0.0978,0.0927,-6.61,-0.04,1.29,
19322,1661558125493,-1.1762,-0.0355,0.0512,-9.8,-2.82,4.67,
19323,1661558125493,-1.2909,-0.1522,0.1557,-11.6,-3.34,-1.26,
19324,1661558125493,-1.245,-0.0228,0.2407,-8.89,-7.9,2.38,
19325,1661558125493,-1.413,-0.1971,0.1913,-9.69,-5.35,-0.35,
19326,1661558125494,-1.2279,-0.2039,0.038,-11.99,-6.53,1.12,
19327,1661558125494,-1.4135,-0.2059,0.4789,-15.88,1.33,2.02,
19328,1661558125495,-1.3563,-0.1805,0.308,-17.0,-2.48,3.3,
19329,1661558125495,-1.1747,-0.1868,0.0151,-18.48,-12.78,1.56,
19330,1661558125495,-1.3969,-0.1663,0.497,-19.88,3.7,1.12,
19331,1661558125497,-1.307,-0.1302,0.5834,-19.0,0.07,2.84,
19332,1661558125497,-1.3197,0.0251,0.0678,-21.7,3.77,2.2,
19333,1661558125497,-1.3471,0.0973,0.5649,-20.58,12.58,-1.26,
19334,1661558125497,-1.3231,0.0402,0.4032,-20.49,9.36,-0.8,
19335,1661558125499,-1.1185,0.1218,0.2084,-18.1,10.38,-2.18,
19336,1661558125499,-1.1649,0.278,0.1908,-17.59,15.37,-0.53,
19337,1661558125500,-1.0941,0.1637,0.3241,-19.09,11.07,-2.99,
19338,1661558125500,-1.1552,0.2101,0.1786,-23.39,10.79,-4.73,
19339,1661558125501,-0.9911,0.3361,0.124,-20.69,8.11,-2.99,
19340,1661558125501,-1.0668,0.2624,0.2123,-14.89,9.53,-3.26,
19341,1661558125502,-0.9867,0.1418,0.1728,-17.09,14.09,-0.44,
19342,1661558125502,-0.9071,0.1384,-0.0162,-16.69,14.18,-0.62,
19343,1661558125502,-0.8124,0.2262,0.059,-16.68,20.53,-1.35,
19344,1661558125503,-0.914,-0.0589,0.1362,-17.27,16.39,0.02,
19345,1661558125503,-0.9198,-0.1458,-0.1456,-17.79,8.95,-1.72,
19346,1661558125503,-0.7421,0.089,-0.0904,-19.29,4.11,0.2,
19347,1661558125504,-0.8554,-0.1756,0.1425,-14.1,11.22,-4.18,
19348,1661558125504,-0.953,-0.1966,-0.1671,-14.8,0.57,-1.81,
19349,1661558125505,-0.7738,-0.0106,0.0395,-13.5,0.65,-4.36,
19350,1661558125505,-1.0014,-0.0462,0.351,-15.0,2.51,2.84,
19351,1661558125505,-0.8266,-0.1492,0.3881,-16.39,9.6,2.29,
19352,1661558125506,-0.6444,-0.0423,-0.2105,-13.4,3.35,7.31,
19353,1661558125506,-0.5067,0.1344,0.1152,-12.3,14.35,2.11,
19354,1661558125507,-0.8412,0.0622,0.3642,-9.99,12.06,1.65,
19355,1661558125507,-0.6513,0.1681,-0.212,-9.78,7.94,6.85,
19356,1661558125508,-0.5619,0.2741,-0.4117,-6.19,-0.1,1.19,
19357,1661558125508,-0.6742,0.3205,-0.0284,-5.4,4.78,6.4,
19358,1661558125508,-0.6142,0.1969,-0.232,-6.53,-9.42,-2.64,
19359,1661558125509,-0.5829,0.1882,-0.5133,-5.2,-8.14,2.38,
19360,1661558125509,-0.765,0.3683,-0.1265,-3.2,-4.51,1.29,
19361,1661558125510,-0.7196,0.2795,-0.0933,0.92,-3.06,1.56,
19362,1661558125510,-0.7694,0.1237,-0.0875,-2.1,-0.45,3.57,
19363,1661558125511,-0.8041,0.1838,0.0864,-3.8,-0.12,-0.26,
19364,1661558125511,-0.8226,-0.0208,-0.2178,-3.29,-5.78,0.66,
19365,1661558125512,-0.8642,-0.0955,0.0102,0.5,2.43,-1.9,
19366,1661558125512,-0.9179,0.0065,0.2304,0.2,3.19,5.04,
19367,1661558125513,-0.9745,-0.1058,0.0322,-2.29,-4.42,-1.08,
19368,1661558125513,-1.0184,-0.2635,-0.1265,-3.6,-7.4,-1.08,
19369,1661558125514,-0.9569,-0.2532,0.2563,-5.51,-5.96,-2.8,
19370,1661558125514,-1.1425,-0.1981,0.0878,-6.38,-12.2,-0.62,
19371,1661558125515,-1.0692,-0.223,-0.1593,-5.71,-15.16,9.95,
19372,1661558125515,-1.2177,-0.3431,0.3862,-5.6,-7.04,8.05,
19373,1661558125515,-1.1132,-0.0535,0.2797,-9.7,-7.79,2.11,
19374,1661558125516,-1.1581,0.0046,0.0419,-11.4,-12.87,1.93,
19375,1661558125516,-1.1625,-0.1322,0.1957,-11.9,-4.83,1.56,
19376,1661558125517,-1.1771,-0.0233,0.2778,-14.71,-6.8,5.85,
19377,1661558125517,-1.1757,0.1862,0.1645,-13.29,-1.89,3.03,
19378,1661558125518,-1.2255,0.0441,-0.0006,-12.8,-5.26,0.66,
19379,1661558125518,-1.1674,0.111,0.1786,-12.3,0.22,-0.9,
19380,1661558125520,-1.2323,0.2131,0.2607,-14.17,-1.8,-4.82,
19381,1661558125520,-1.3153,0.1745,0.0326,-14.22,-3.67,-2.71,
19382,1661558125520,-1.2694,0.0885,0.1342,-16.89,-0.61,-1.72,
19383,1661558125521,-1.3129,0.1218,0.3896,-15.9,-0.12,-3.99,
19384,1661558125521,-1.3178,0.0539,0.2382,-16.8,-1.55,-3.08,
19385,1661558125522,-1.3065,-0.0369,0.3969,-18.6,4.89,-3.9,
19386,1661558125522,-1.309,-0.0814,0.4472,-17.7,8.43,-1.9,
19387,1661558125523,-1.2909,0.0417,0.2773,-22.8,9.86,-2.8,
19388,1661558125523,-1.3319,-0.0247,0.3823,-22.17,10.55,-3.72,
19389,1661558125524,-1.2074,-0.224,0.4301,-19.29,13.33,-2.71,
19390,1661558125524,-1.2055,-0.0623,0.0907,-21.9,7.33,-3.9,
19391,1661558125524,-1.101,-0.0521,0.3149,-25.3,11.31,-3.54,
19392,1661558125524,-1.2528,-0.1898,0.4101,-23.09,8.34,-0.07,
19393,1661558125525,-0.8427,-0.0418,-0.0743,-24.99,1.67,2.48,
19394,1661558125525,-1.0761,0.0988,0.2734,-23.19,7.92,3.57,
19395,1661558125526,-1.1059,0.0822,0.5195,-23.38,19.86,2.02,
19396,1661558125526,-1.0082,-0.0047,-0.0294,-20.49,7.24,1.12,
19397,1661558125527,-0.9486,0.1799,0.0951,-24.87,17.32,2.2,
19398,1661558125527,-0.9433,0.2887,0.2631,-20.49,4.54,-1.81,
19399,1661558125528,-0.788,0.1164,0.059,-16.98,15.97,-0.99,
19400,1661558125528,-0.8046,0.2819,-0.1036,-14.88,10.81,-0.07,
19401,1661558125529,-0.7265,0.2375,-0.0997,-15.07,12.93,0.2,
19402,1661558125529,-0.7885,0.2604,0.0224,-14.98,14.1,3.03,
19403,1661558125529,-0.8861,0.2521,0.0741,-14.19,10.79,-4.82,
19404,1661558125530,-0.7938,0.1877,-0.0811,-17.78,-1.63,2.75,
19405,1661558125530,-0.766,0.2658,0.0761,-13.41,3.35,-2.71,
19406,1661558125531,-0.725,0.0583,0.1113,-7.92,7.92,5.76,
19407,1661558125531,-0.6625,0.112,-0.0396,-8.39,11.14,-2.64,
19408,1661558125532,-0.6893,0.1789,0.0219,-10.79,10.72,-1.72,
19409,1661558125532,-0.7138,-0.036,0.0234,-9.78,9.28,2.29,
19410,1661558125533,-0.7396,-0.012,-0.1124,-9.29,3.29,-1.26,
19411,1661558125533,-0.6205,0.0202,-0.1055,-2.68,2.35,3.3,
19412,1661558125533,-0.7265,-0.0374,-0.1202,-4.39,1.24,2.84,
19413,1661558125534,-0.685,-0.0374,-0.317,-5.0,-3.25,4.86,
19414,1661558125535,-0.7533,-0.097,-0.2066,-9.61,-4.6,1.12,
19415,1661558125535,-0.7309,-0.0408,0.0004,-9.2,-10.51,2.75,
19416,1661558125535,-0.8246,0.0402,-0.2452,-8.7,-27.67,2.11,
19417,1661558125537,-0.9403,-0.1019,-0.0069,-6.1,-7.14,7.22,
19418,1661558125537,-0.7494,-0.1868,-0.294,-0.09,-4.92,7.5,
19419,1661558125537,-0.8705,0.1476,0.1264,-4.68,12.41,10.23,
19420,1661558125537,-0.9569,0.068,0.0849,-8.32,-12.98,7.4,
19421,1661558125538,-0.9989,-0.0804,-0.1221,-8.48,-16.6,9.22,
19422,1661558125538,-0.9267,0.1105,0.0942,-4.99,-11.94,7.31,
19423,1661558125539,-1.0429,0.1423,0.1034,-0.29,-2.73,1.19,
19424,1661558125539,-0.9559,-0.0242,-0.1134,-4.68,-1.8,-0.9,
19425,1661558125539,-1.1605,0.1471,0.3022,-9.99,-2.31,0.48,
19426,1661558125542,-1.1376,0.1149,0.1669,-11.58,-14.64,2.2,
19427,1661558125542,-1.1527,0.1554,-0.0123,-5.6,-12.71,4.49,
19428,1661558125542,-1.1327,0.0905,0.1308,-7.08,-2.63,4.76,
19429,1661558125542,-1.1898,-0.0081,0.2446,-8.3,2.69,2.38,
19430,1661558125542,-1.1986,0.0563,0.0527,-8.88,-0.36,-4.73,
19431,1661558125542,-1.2626,-0.1605,0.2045,-11.09,-5.53,-2.8,
19432,1661558125543,-1.2055,-0.0858,0.2455,-8.18,-7.21,-3.63,
19433,1661558125543,-1.1796,-0.0521,0.0702,-11.99,-10.1,-2.27,
19434,1661558125544,-1.411,-0.3006,0.122,-16.89,1.91,-2.45,
19435,1661558125544,-1.2538,-0.2567,0.2372,-19.39,-2.24,-0.16,
19436,1661558125545,-1.3978,-0.1844,0.3354,-19.0,-4.25,-2.45,
19437,1661558125545,-1.3559,-0.1781,0.2616,-18.68,-8.65,-0.53,
19438,1661558125546,-1.2792,-0.1424,0.1264,-22.09,-7.88,-1.08,
19439,1661558125546,-1.392,-0.0408,0.7939,-24.29,9.62,2.29,
19440,1661558125547,-1.3808,-0.0345,0.0678,-22.08,-2.73,1.83,
19441,1661558125547,-1.205,0.1115,0.2529,-23.51,5.64,0.48,
19442,1661558125547,-1.3568,0.1701,0.6664,-23.7,10.37,-3.9,
19443,1661558125548,-1.3246,0.1203,0.4799,-23.09,11.05,-2.18,
19444,1661558125548,-1.1288,0.2052,-0.0904,-22.28,9.54,-5.28,
19445,1661558125549,-1.1557,0.3522,0.3954,-23.39,16.38,-2.45,
19446,1661558125549,-1.1605,0.1989,0.3525,-22.99,8.18,-3.81,
19447,1661558125550,-1.058,0.236,-0.0137,-22.48,8.35,-0.44,
19448,1661558125550,-1.0033,0.279,0.1362,-22.87,5.32,-2.8,
19449,1661558125551,-1.0761,0.2614,0.2919,-22.09,13.43,-3.72,
19450,1661558125551,-0.9501,0.1442,0.1689,-20.31,12.73,-2.99,
19451,1661558125553,-0.8803,0.113,-0.0582,-21.48,18.5,-2.45,
19452,1661558125553,-0.8622,0.1794,0.1845,-18.78,15.63,-2.64,
19453,1661558125553,-0.9594,-0.1243,0.0492,-18.08,10.9,1.65,
19454,1661558125554,-0.8563,-0.0491,-0.1407,-21.0,6.58,-0.53,
19455,1661558125554,-0.7504,0.0597,-0.0313,-20.17,11.07,2.48,
19456,1661558125555,-0.9008,-0.2054,0.1283,-17.9,12.07,0.93,
19457,1661558125555,-1.0248,-0.2108,0.0019,-19.7,3.03,5.12,
19458,1661558125556,-0.6884,-0.0174,-0.0616,-16.3,1.26,2.2,
19459,1661558125556,-0.7392,-0.0052,0.4316,-20.0,13.08,6.4,
19460,1661558125556,-0.8344,-0.0467,0.1489,-16.49,6.31,-0.16,
19461,1661558125556,-0.7108,0.089,-0.21,-17.52,-0.28,2.02,
19462,1661558125557,-0.7577,0.1745,0.308,-15.7,2.58,0.66,
19463,1661558125557,-0.8427,0.1125,0.3373,-9.98,5.32,6.95,
19464,1661558125557,-0.6688,0.1447,-0.2486,-8.7,1.5,12.06,
19465,1661558125558,-0.6913,0.3288,-0.233,-9.2,1.15,4.31,
19466,1661558125558,-0.7255,0.3654,0.0663,-11.0,4.72,9.49,
19467,1661558125559,-0.6024,0.196,-0.4859,-5.71,-5.18,1.65,
19468,1661558125559,-0.619,0.1598,-0.439,-5.71,1.5,4.76,
19469,1661558125560,-0.7631,0.3195,-0.0201,-7.49,-6.97,2.29,
19470,1661558125560,-0.6991,0.2043,-0.2374,-8.12,-5.37,0.2,
