srNo,timestamp,ax,ay,az,gx,gy,gz,temp
34960,1661560813664,-0.7099,0.1665,-0.0736,11.48,1.01,-2.0,
34961,1661560813664,-0.9203,0.4116,0.2506,8.67,1.18,-4.09,
34962,1661560813665,-0.9521,0.4014,0.7892,9.97,6.17,1.74,
34963,1661560813665,-1.0717,0.3613,0.2628,13.48,-5.41,-4.27,
34964,1661560813665,-0.9086,0.3867,-0.4301,19.37,-1.95,-4.82,
34965,1661560813666,-0.9726,0.3613,0.6432,19.17,8.2,-1.9,
34966,1661560813666,-0.8183,0.6992,0.3898,19.67,14.45,-0.17,
34967,1661560813667,-0.7768,0.5557,-0.3837,20.97,4.31,1.02,
34968,1661560813667,-0.7197,0.2661,-0.7182,18.47,5.57,1.83,
34969,1661560813668,-0.8124,0.5864,0.1178,22.37,-0.09,-3.72,
34970,1661560813668,-0.8476,0.1299,-0.163,25.67,-10.16,0.93,
34971,1661560813669,-0.7402,0.3789,-0.3524,26.46,-8.47,-3.26,
34972,1661560813669,-0.7138,0.166,-0.2269,25.87,-7.53,0.48,
34973,1661560813669,-0.7822,0.0137,-0.0267,25.06,-2.29,-2.9,
34974,1661560813670,-0.8705,0.2124,0.1368,27.76,-7.44,-6.56,
34975,1661560813671,-0.8447,-0.1943,-0.266,28.86,-3.14,-0.9,
34976,1661560813671,-0.9023,-0.1104,0.0846,25.67,-0.01,-3.81,
34977,1661560813671,-1.0317,0.0444,0.4952,18.97,3.13,-1.54,
34978,1661560813672,-0.8075,-0.3276,-0.0922,22.77,-10.16,-1.63,
34979,1661560813672,-1.0248,0.0024,-0.202,25.06,-15.82,-0.99,
34980,1661560813673,-0.9272,-0.356,0.3566,24.66,-1.19,0.02,
34981,1661560813673,-0.8813,-0.3276,0.2931,20.57,-7.11,5.76,
34982,1661560813674,-0.9848,-0.0703,-0.0062,19.57,-6.27,1.38,
34983,1661560813674,-1.0595,-0.4483,-0.037,17.76,-20.31,2.47,
34984,1661560813675,-1.0571,-0.0767,0.442,19.17,-18.02,-1.26,
34985,1661560813675,-0.9345,-0.0278,0.3307,19.67,-13.46,0.2,
34986,1661560813676,-0.9687,-0.061,-0.372,20.08,-13.12,-0.71,
34987,1661560813676,-0.9911,-0.1699,0.1857,18.16,-8.89,5.57,
34988,1661560813676,-1.0356,-0.186,0.5641,13.97,1.27,3.48,
34989,1661560813677,-0.9594,0.3008,0.1505,17.47,-5.17,-4.0,
34990,1661560813677,-0.8495,-0.1255,-0.6307,20.86,-13.62,-1.54,
34991,1661560813678,-1.0678,-0.1094,0.2628,13.97,-6.44,-1.26,
34992,1661560813678,-1.0776,0.2309,0.3971,13.07,-10.24,-0.53,
34993,1661560813679,-1.1332,-0.0869,-0.3436,13.77,-16.32,-4.09,
34994,1661560813679,-1.1899,0.1011,0.3268,16.16,-5.34,-1.26,
34995,1661560813680,-1.2187,0.0073,0.7623,12.26,4.23,-0.62,
34996,1661560813680,-1.2148,0.1123,0.4098,9.37,3.54,-0.99,
34997,1661560813681,-1.1025,0.0815,-0.1137,7.77,3.8,-2.9,
34998,1661560813681,-1.1484,-0.1284,0.5538,5.27,10.73,-2.18,
34999,1661560813681,-1.2543,0.3516,0.4562,5.95,3.47,-8.37,
35000,1661560813682,-1.1845,0.2451,0.1129,13.17,2.28,1.47,
35001,1661560813683,-1.0746,-0.1582,-0.1366,15.67,-2.12,-3.9,
35002,1661560813683,-1.3237,0.3149,0.4498,11.59,4.57,-0.35,
35003,1661560813683,-1.0737,0.0107,0.1515,1.07,-8.89,-1.26,
35004,1661560813684,-1.1576,0.2329,0.0255,0.37,-13.12,-1.72,
35005,1661560813684,-1.0639,0.3003,0.3414,5.57,-8.3,-2.9,
35006,1661560813685,-0.9428,0.2519,0.2247,10.47,-10.66,-2.27,
35007,1661560813685,-0.9994,0.4907,0.2164,12.07,9.46,-0.26,
35008,1661560813686,-1.0214,0.1289,0.2574,11.77,11.08,-4.18,
35009,1661560813686,-1.0038,0.4599,0.1759,4.37,4.14,-6.56,
35010,1661560813686,-1.0165,0.7099,0.2882,3.68,-1.61,-8.1,
35011,1661560813687,-0.9887,0.3901,0.1412,8.58,-10.57,-4.45,
35012,1661560813687,-0.8984,0.479,-0.1981,14.48,-8.89,-7.37,
35013,1661560813688,-0.9614,0.4927,0.2076,15.48,3.63,-5.19,
35014,1661560813688,-0.9672,0.6933,0.4142,12.87,13.52,-6.01,
35015,1661560813689,-0.9496,0.6538,0.0362,11.07,2.37,-9.66,
35016,1661560813689,-0.9433,0.3384,0.0318,7.27,10.99,-7.73,
35017,1661560813690,-0.977,0.6059,0.608,13.07,4.47,-12.2,
35018,1661560813690,-0.8862,0.3979,0.0402,15.48,2.03,-7.46,
35019,1661560813690,-0.8534,0.331,-0.0248,24.07,2.7,-8.47,
35020,1661560813691,-0.9379,0.3271,0.1373,23.27,9.56,-5.64,
35021,1661560813691,-0.9467,0.1919,0.2452,20.79,12.85,-5.83,
35022,1661560813692,-0.9023,0.1963,-0.1644,18.67,3.97,-6.82,
35023,1661560813692,-0.874,0.2466,-0.0209,19.37,7.95,-3.54,
35024,1661560813693,-0.746,0.0571,-0.2089,20.97,-11.5,-5.19,
35025,1661560813693,-0.7983,0.1357,-0.1444,22.46,-4.65,-4.27,
35026,1661560813694,-0.7416,-0.0371,-0.184,25.96,-12.26,-1.17,
35027,1661560813694,-0.9208,-0.0186,-0.1351,25.87,-3.64,2.84,
35028,1661560813695,-0.8451,0.2578,0.4488,24.77,-6.01,3.39,
35029,1661560813695,-0.9526,-0.0591,-0.1932,26.16,-12.6,3.3,
35030,1661560813696,-0.8075,0.1855,-0.2274,23.47,-12.95,0.48,
35031,1661560813696,-0.8935,0.0137,0.3478,23.96,-6.68,4.4,
35032,1661560813697,-0.7939,0.2964,0.232,23.27,-1.95,0.93,
35033,1661560813697,-0.8759,0.3555,-0.2157,26.46,-5.17,3.39,
35034,1661560813697,-0.8935,0.0581,-0.2426,25.94,2.7,1.47,
35035,1661560813700,-0.9682,0.1797,0.193,25.47,-1.02,1.47,
35036,1661560813700,-0.9662,0.0195,-0.0477,18.57,-12.77,1.65,
35037,1661560813700,-0.9697,0.0498,0.2076,20.86,-11.5,-0.17,
35038,1661560813700,-0.9828,-0.0005,0.0035,26.87,-8.21,0.57,
35039,1661560813700,-1.0121,-0.1275,-0.0355,28.17,-1.02,-0.81,
35040,1661560813700,-0.9867,-0.1358,0.1481,22.16,-1.69,-1.63,
35041,1661560813701,-1.0751,-0.2061,0.234,17.87,-3.55,1.65,
35042,1661560813701,-0.9731,-0.2373,0.0528,18.97,-8.89,0.11,
35043,1661560813702,-0.9828,-0.2012,-0.1688,21.96,-3.89,-0.35,
35044,1661560813702,-0.9091,-0.2656,0.0221,15.37,-9.99,-0.81,
35045,1661560813702,-1.1572,-0.2007,0.069,18.77,-13.36,-0.71,
35046,1661560813703,-1.0551,-0.3433,-0.1181,20.27,-14.89,1.74,
35047,1661560813703,-0.9599,-0.3018,-0.1063,20.37,-9.99,2.29,
35048,1661560813704,-1.1542,-0.0484,0.5572,9.07,-9.56,4.12,
35049,1661560813704,-1.162,-0.2993,0.0597,7.37,-24.53,3.12,
35050,1661560813705,-1.1738,-0.0112,0.2887,11.77,-13.36,0.48,
35051,1661560813705,-1.1303,0.0391,0.6822,13.68,-2.29,4.76,
35052,1661560813706,-1.1723,0.0923,0.4737,13.37,8.12,2.84,
35053,1661560813706,-1.1156,0.2412,0.2037,9.37,12.09,1.12,
35054,1661560813707,-1.1835,0.0635,0.2692,4.08,11.16,-3.35,
35055,1661560813707,-1.1318,0.4336,0.3111,5.27,5.24,-3.17,
35056,1661560813707,-1.1957,0.375,0.2472,6.58,-4.41,-4.0,
35057,1661560813708,-1.1645,0.2099,0.0426,8.17,-7.53,-6.38,
35058,1661560813708,-1.1366,0.4419,0.0348,10.78,-9.06,-5.0,
35059,1661560813709,-1.1327,0.3105,0.317,7.77,3.97,-3.35,
35060,1661560813709,-1.1156,0.3906,0.277,8.27,5.5,-2.45,
35061,1661560813710,-1.061,0.3286,0.0699,6.37,4.4,-6.01,
35062,1661560813710,-1.0014,0.292,0.1681,7.18,4.57,-6.73,
35063,1661560813711,-1.0121,0.3467,0.2413,11.17,3.54,-8.28,
35064,1661560813711,-0.9443,0.1567,0.1393,11.37,7.77,-10.11,
35065,1661560813712,-0.8901,0.1509,-0.0648,11.97,-0.85,-7.73,
35066,1661560813712,-1.0932,0.355,-0.0189,11.57,2.95,-11.47,
35067,1661560813712,-0.975,0.1177,0.2794,11.26,7.69,-8.74,
35068,1661560813713,-1.0195,0.2339,0.0543,9.17,-1.35,-7.92,
35069,1661560813713,-0.9286,0.1474,-0.0429,11.17,-11.33,-7.64,
35070,1661560813714,-1.1127,0.374,0.4864,11.77,-7.78,-8.92,
35071,1661560813714,-1.1098,0.4873,0.6847,14.87,11.49,-6.91,
35072,1661560813715,-0.7221,0.2768,0.1256,10.58,4.73,-2.18,
35073,1661560813715,-0.9765,0.4902,0.1715,8.98,12.52,-6.56,
35074,1661560813716,-0.9535,0.438,0.568,9.57,7.69,-2.71,
35075,1661560813716,-1.0619,0.3574,0.0201,14.47,6.34,-3.08,
35076,1661560813716,-0.914,0.5825,-0.0287,19.57,5.07,-6.1,
35077,1661560813717,-0.871,0.5171,0.0763,22.77,4.4,-2.0,
35078,1661560813717,-0.7856,0.5264,-0.0512,20.37,10.73,-8.37,
35079,1661560813718,-0.7084,0.4692,-0.3256,19.17,7.19,-5.55,
35080,1661560813718,-0.7333,0.3467,-0.2885,18.47,-4.41,-5.55,
35081,1661560813719,-0.7719,0.4609,-0.122,26.16,-9.47,-3.08,
35082,1661560813719,-0.7856,0.2651,-0.0165,23.96,0.84,-2.71,
35083,1661560813720,-0.7656,0.3291,-0.143,26.46,4.4,-6.47,
35084,1661560813720,-0.7875,0.1011,-0.3407,27.35,-5.0,-5.37,
35085,1661560813721,-0.811,-0.063,0.1642,27.47,-3.89,-4.54,
35086,1661560813721,-0.8442,0.0527,-0.0219,28.37,-9.56,-0.99,
35087,1661560813721,-0.7377,-0.2295,-0.2328,25.47,-5.41,0.2,
35088,1661560813724,-0.8129,-0.2232,-0.12,19.57,-8.21,0.84,
35089,1661560813724,-1.0287,0.0679,0.3761,21.67,-4.65,-2.81,
35090,1661560813724,-0.8417,-0.3189,-0.1146,25.67,-18.02,0.29,
35091,1661560813724,-1.0014,-0.1182,-0.0175,24.37,-9.56,-1.08,
35092,1661560813724,-0.9194,-0.1372,0.5987,19.87,-4.82,0.66,
35093,1661560813724,-1.0141,-0.1196,-0.1698,19.06,-14.39,3.21,
35094,1661560813725,-1.0126,-0.1187,0.0089,21.17,-11.26,-2.64,
35095,1661560813725,-1.1078,-0.2901,0.3639,19.76,-11.76,-0.26,
35096,1661560813726,-1.0248,0.0151,0.2452,23.67,-12.1,-1.26,
35097,1661560813726,-0.9301,0.0718,-0.1181,22.66,-9.06,1.12,
35098,1661560813727,-1.0199,-0.1011,0.1857,20.27,-2.21,-1.9,
35099,1661560813727,-0.9345,0.0791,0.006,21.96,-12.6,0.02,
35100,1661560813728,-1.0038,-0.0728,-0.1049,18.47,-11.5,-4.18,
35101,1661560813728,-1.0019,0.1348,0.0441,19.76,-11.5,-0.99,
35102,1661560813729,-1.0478,-0.2276,-0.0565,14.36,-15.99,-2.71,
35103,1661560813729,-1.1122,0.062,0.2897,14.87,-8.63,-7.09,
35104,1661560813729,-1.1069,0.1059,0.2828,18.67,-8.3,-4.73,
35105,1661560813730,-1.1938,-0.1392,0.1554,16.76,-6.44,-6.63,
35106,1661560813730,-1.1679,0.0137,0.2262,14.36,-3.89,-4.64,
35107,1661560813731,-1.1454,-0.1519,0.4142,12.47,4.81,-3.17,
35108,1661560813731,-1.1747,0.0058,0.2584,11.48,2.78,-0.53,
35109,1661560813732,-1.2109,0.0249,0.1207,8.47,1.51,-5.73,
35110,1661560813732,-1.0947,-0.1187,0.3033,4.87,-1.11,-2.55,
35111,1661560813733,-1.2831,0.1011,0.4464,5.97,-3.98,-5.09,
35112,1661560813733,-1.1747,-0.0552,0.0738,10.97,-6.94,-1.45,
35113,1661560813733,-1.2211,0.0425,0.1193,8.59,-5.08,-4.27,
35114,1661560813734,-1.2387,0.2334,0.6944,4.67,6.67,2.29,
35115,1661560813734,-1.0658,0.081,0.4401,5.77,-4.74,2.2,
35116,1661560813735,-1.1738,0.3183,0.0499,4.6,-2.45,1.47,
35117,1661560813735,-0.9809,0.3476,0.5367,4.08,4.73,-1.45,
35118,1661560813736,-0.9838,0.2568,0.3541,6.37,-5.17,-2.71,
35119,1661560813736,-0.934,0.4702,-0.0175,11.69,4.4,2.11,
35120,1661560813737,-0.9906,0.3891,0.2067,14.58,10.39,-1.17,
35121,1661560813737,-0.9482,0.3642,-0.1127,11.17,8.96,-3.9,
35122,1661560813737,-0.9799,0.5679,0.0172,7.37,1.68,-1.26,
35123,1661560813739,-0.9369,0.4057,0.1783,8.58,-0.18,-1.72,
35124,1661560813739,-0.9052,0.4629,0.0821,12.07,-12.02,-2.27,
35125,1661560813739,-0.9457,0.3887,0.0079,16.16,-1.95,-5.64,
35126,1661560813739,-1.0732,0.5581,0.5675,13.07,9.22,-2.81,
35127,1661560813740,-0.9643,0.4243,0.1481,14.58,5.57,-3.72,
35128,1661560813740,-0.9208,0.251,0.046,12.18,16.24,-1.36,
35129,1661560813741,-0.8876,0.3945,0.4259,11.57,21.9,-4.82,
35130,1661560813741,-0.9609,0.4326,0.1554,14.47,7.53,-6.73,
35131,1661560813742,-0.8071,0.1973,-0.1845,18.86,-1.69,-3.08,
35132,1661560813742,-1.0683,0.4048,0.3082,21.87,3.38,-4.09,
35133,1661560813743,-1.0063,0.3008,0.256,21.67,3.38,-2.36,
35134,1661560813743,-0.9042,0.1836,-0.3744,17.96,-1.95,-5.83,
35135,1661560813743,-0.8134,0.2471,0.1144,17.26,3.54,-3.63,
35136,1661560813744,-0.6835,0.104,0.0699,17.96,-8.97,-2.81,
35137,1661560813744,-0.7704,0.27,-0.3549,22.59,-7.87,-4.45,
35138,1661560813745,-0.7421,-0.043,-0.0507,25.47,-5.41,-3.72,
35139,1661560813745,-0.7509,0.3432,0.3356,23.27,3.3,-3.9,
35140,1661560813746,-0.8124,0.4961,0.1466,23.56,-5.51,-5.0,
35141,1661560813746,-0.7909,-0.0933,-0.5287,24.97,-12.1,-5.19,
35142,1661560813747,-0.8525,0.2607,0.0597,25.87,-0.76,-7.28,
35143,1661560813747,-0.8627,0.1665,0.2457,27.47,-1.52,-7.09,
35144,1661560813748,-0.7895,0.208,-0.3246,24.16,-6.77,-8.01,
35145,1661560813748,-0.8139,0.1753,-0.0228,21.37,-10.24,-5.19,
35146,1661560813749,-0.892,0.0366,0.2784,21.56,-6.85,-5.92,
35147,1661560813749,-0.9155,0.2182,0.1915,25.36,-6.01,-4.36,
35148,1661560813749,-0.914,0.0561,-0.1732,22.77,-1.69,-5.37,
35149,1661560813750,-1.0282,-0.1231,0.4318,23.36,3.38,-5.28,
35150,1661560813750,-1.0365,-0.0005,0.1266,24.86,-9.4,-5.73,
35151,1661560813751,-0.9125,-0.3364,-0.0726,24.27,-10.92,-4.45,
35152,1661560813751,-1.099,-0.1475,0.0719,22.66,-13.03,-5.46,
35153,1661560813752,-0.9931,-0.2671,0.0856,20.66,-5.67,-0.35,
35154,1661560813752,-0.8583,-0.2764,0.0509,18.57,-10.07,-1.63,
35155,1661560813753,-1.0331,-0.1568,-0.058,19.75,-14.89,0.38,
35156,1661560813753,-0.9618,-0.4448,-0.1063,18.77,-24.7,2.38,
35157,1661560813754,-1.1572,-0.1997,0.2779,19.67,-6.6,7.31,
35158,1661560813754,-0.8862,-0.1572,0.3072,17.06,-5.67,8.04,
35159,1661560813755,-1.163,-0.1885,-0.119,15.96,-9.81,6.3,
35160,1661560813755,-1.1645,-0.0679,0.4557,11.66,-11.0,5.85,
35161,1661560813756,-1.287,-0.1426,0.1969,13.48,-14.63,6.3,
35162,1661560813756,-1.1147,0.0185,0.0826,15.48,-2.88,4.95,
35163,1661560813756,-1.1572,0.1079,0.3048,16.07,2.11,3.02,
35164,1661560813757,-1.1713,0.1387,0.4723,10.58,8.62,1.47,
35165,1661560813757,-1.079,0.2959,-0.0219,7.77,2.7,-0.99,
35166,1661560813758,-1.0771,0.207,-0.1688,7.27,-0.01,-2.0,
35167,1661560813758,-1.1537,0.2349,0.4176,8.08,2.28,-3.81,
35168,1661560813759,-1.1908,0.3271,0.5504,8.87,-0.68,-2.55,
35169,1661560813759,-1.1703,0.2695,0.0568,8.09,-8.13,-3.45,
35170,1661560813760,-1.1713,0.2744,0.2545,11.17,-8.47,-4.09,
35171,1661560813760,-1.1576,0.2744,0.63,7.56,13.19,-8.83,
35172,1661560813760,-1.0864,0.3164,0.3785,10.58,12.94,0.2,
35173,1661560813761,-1.0009,0.1689,-0.2406,9.27,10.99,-6.28,
35174,1661560813761,-0.9697,0.2197,0.2652,7.88,8.62,-0.62,
35175,1661560813762,-1.0429,0.2905,0.4044,8.27,2.2,-5.0,
35176,1661560813762,-0.9833,0.2754,-0.1776,7.27,-7.78,-5.09,
35177,1661560813763,-0.9931,0.1128,-0.2811,11.57,-9.9,-4.36,
35178,1661560813763,-1.1781,0.2344,0.38,11.87,0.67,-4.54,
35179,1661560813764,-0.9389,0.1435,-0.0087,11.87,-2.38,-2.64,
35180,1661560813764,-0.9921,0.3242,0.1725,9.37,-2.38,-2.71,
35181,1661560813764,-0.9921,0.187,0.4361,9.97,-2.62,-2.27,
35182,1661560813765,-1.1459,0.3701,0.483,11.66,-4.15,-7.55,
35183,1661560813765,-0.974,0.477,0.2052,13.48,7.1,-6.47,
35184,1661560813766,-0.9262,0.311,0.3419,10.47,16.74,-6.19,
35185,1661560813766,-0.977,0.6377,0.4054,11.26,21.56,-7.09,
35186,1661560813767,-0.8876,0.5034,0.1056,14.58,6.5,-4.09,
35187,1661560813767,-0.9208,0.3735,-0.1371,17.26,5.16,-9.66,
35188,1661560813768,-0.9311,0.6938,0.1896,21.76,0.17,-8.56,
35189,1661560813768,-0.851,0.3642,-0.1664,21.96,-4.91,-10.3,
35190,1661560813770,-0.7656,0.542,-0.0556,16.27,6.0,-13.03,
35191,1661560813770,-0.7748,0.5098,-0.0053,17.17,4.99,-8.74,
35192,1661560813770,-0.8085,0.3281,-0.0663,20.07,-0.09,-9.75,
35193,1661560813770,-0.7592,0.438,-0.1171,27.36,-7.11,-7.92,
35194,1661560813770,-0.7265,0.1099,0.0318,27.16,3.54,-6.19,
35195,1661560813771,-0.7519,0.1172,-0.2621,28.96,-1.19,-11.01,
35196,1661560813771,-0.8593,0.0205,-0.2411,25.76,1.68,-11.11,
35197,1661560813772,-0.7055,-0.0972,0.0328,28.96,-7.61,-5.92,
35198,1661560813772,-0.7563,0.0498,-0.056,25.87,-12.36,-4.64,
35199,1661560813773,-0.8539,-0.1314,-0.3534,26.46,-18.87,4.21,
35200,1661560813773,-0.8959,-0.2051,-0.0668,24.37,-12.26,-0.9,
35201,1661560813774,-1.0488,0.0229,0.4064,23.67,-11.59,-1.9,
35202,1661560813774,-1.0146,-0.2442,0.0348,22.16,-16.32,-1.54,
35203,1661560813775,-0.9677,0.0019,0.2023,20.27,-2.97,1.56,
35204,1661560813775,-0.8642,-0.0269,0.5934,19.76,5.74,-0.44,
35205,1661560813775,-0.996,0.0806,-0.1503,19.76,-3.72,-3.26,
35206,1661560813776,-0.9897,-0.0049,-0.2865,20.85,-17.25,-4.64,
35207,1661560813776,-1.0336,-0.2256,0.5318,23.67,-1.86,-1.45,
35208,1661560813777,-1.0551,0.332,0.3829,26.26,-6.01,-4.45,
35209,1661560813777,-0.8442,-0.1592,-0.8075,24.37,-9.9,-2.27,
35210,1661560813778,-0.9389,-0.0801,0.149,16.67,-6.94,-3.81,
35211,1661560813778,-0.9789,0.0727,0.3551,15.96,-16.25,-2.09,
35212,1661560813779,-1.0102,-0.0547,-0.3734,19.37,-15.39,-6.28,
35213,1661560813779,-1.0014,-0.0767,0.0782,20.77,-12.26,-4.09,
35214,1661560813780,-1.2182,-0.0615,0.5074,14.96,-5.84,-1.17,
35215,1661560813780,-1.1513,-0.1094,0.0055,18.86,-11.5,-4.0,
35216,1661560813781,-1.1357,-0.1821,-0.0326,16.47,-4.07,1.19,
35217,1661560813781,-1.0834,-0.1524,0.4435,13.48,5.24,-0.81,
35218,1661560813782,-1.2377,0.0698,0.1637,14.87,3.38,1.74,
35219,1661560813782,-1.0649,-0.2212,0.1031,13.37,4.81,0.84,
35220,1661560813783,-1.3285,-0.0005,0.3844,9.68,-2.12,-0.53,
35221,1661560813783,-1.311,0.0845,0.4274,7.47,-12.26,1.02,
35222,1661560813783,-1.0732,-0.1411,0.0812,4.87,-17.25,1.38,
35223,1661560813784,-1.2846,0.0889,0.5611,9.48,8.96,1.19,
35224,1661560813784,-1.0556,0.0102,0.4239,10.36,1.1,-2.18,
35225,1661560813785,-1.2426,0.2368,0.1417,9.17,0.08,-1.63,
35226,1661560813785,-1.1835,0.2275,0.4693,7.68,8.36,-0.17,
35227,1661560813786,-1.1591,0.0991,0.4347,4.67,-3.38,-0.62,
35228,1661560813786,-1.0741,0.5483,0.1578,4.17,-1.02,1.83,
35229,1661560813786,-1.0551,0.4785,0.2374,7.07,0.75,0.48,
35230,1661560813787,-1.0346,0.1846,0.1344,9.88,6.5,-0.9,
35231,1661560813787,-0.977,0.5776,-0.0629,10.36,8.03,-1.36,
35232,1661560813788,-0.9902,0.354,-0.0971,9.37,7.36,-5.46,
35233,1661560813788,-0.9858,0.4766,0.1412,6.47,2.11,-5.83,
35234,1661560813789,-1.0522,0.4941,0.2023,7.18,-5.67,-4.09,
35235,1661560813789,-1.0468,0.3852,0.1446,9.77,-8.47,-6.01,
35236,1661560813789,-0.954,0.5156,0.0528,15.17,-5.0,-4.64,
35237,1661560813792,-0.9623,0.3423,0.2853,14.58,8.79,-7.28,
35238,1661560813792,-1.0131,0.374,0.3375,13.87,15.05,-6.19,
35239,1661560813792,-1.0102,0.435,0.0983,11.17,12.85,-3.63,
35240,1661560813792,-0.8842,0.1899,0.152,14.56,15.55,-2.45,
35241,1661560813792,-0.9321,0.4097,0.2716,13.48,10.56,0.57,
35242,1661560813792,-0.8793,0.3447,0.0641,12.67,2.2,0.29,
35243,1661560813793,-0.7582,0.1753,-0.0946,17.17,-9.06,-0.17,
35244,1661560813793,-0.9745,0.2505,0.0587,23.36,-0.76,-2.27,
35245,1661560813794,-0.9023,0.1763,0.1715,21.96,-2.21,1.56,
35246,1661560813794,-0.8959,0.3096,0.027,18.07,-0.76,0.84,
35247,1661560813794,-0.7797,0.2187,0.2286,17.06,2.95,2.66,
35248,1661560813795,-0.6386,0.1435,0.0997,15.48,1.44,0.29,
35249,1661560813795,-0.8056,0.4673,-0.1913,21.47,2.37,-1.08,
35250,1661560813796,-0.7465,0.0547,-0.1952,29.06,1.85,0.93,
35251,1661560813796,-0.7133,0.3271,0.3097,25.87,2.03,2.2,
35252,1661560813797,-0.7968,0.6855,0.2193,28.37,2.61,-3.54,
35253,1661560813797,-0.6757,0.0845,-0.7841,27.36,-9.99,1.83,
35254,1661560813798,-0.7812,0.1474,-0.3881,23.27,-12.86,-4.54,
35255,1661560813798,-0.8862,0.2817,0.4342,21.76,-8.89,-2.27,
35256,1661560813798,-0.8749,0.1377,-0.3764,28.17,-12.69,-3.63,
35257,1661560813799,-0.7905,0.1103,-0.3329,28.06,-12.26,-1.26,
35258,1661560813799,-1.0644,0.0474,0.8502,24.66,2.03,-1.72,
35259,1661560813800,-0.9823,0.1763,0.693,20.27,-3.05,-5.09,
35260,1661560813801,-0.9257,-0.0186,-0.4559,24.88,-12.69,-8.01,
35261,1661560813801,-0.9623,-0.3692,0.3829,28.16,2.28,1.56,
35262,1661560813801,-1.0727,0.1465,0.4816,27.06,-1.02,-2.64,
35263,1661560813802,-0.8686,-0.3901,-0.413,26.26,-4.74,1.74,
35264,1661560813802,-1.0976,-0.273,0.1144,19.37,-13.62,-0.9,
35265,1661560813803,-1.0175,-0.0972,0.3463,22.97,-13.46,-2.18,
35266,1661560813803,-0.8813,-0.3106,-0.1249,25.56,-23.17,2.84,
35267,1661560813804,-1.0107,-0.3438,-0.3173,18.67,-5.67,1.19,
35268,1661560813804,-1.0419,-0.3618,0.4982,13.17,-16.32,1.65,
35269,1661560813805,-1.1987,-0.1611,0.1446,15.67,-24.62,-3.08,
35270,1661560813805,-0.9428,-0.0947,0.2062,22.77,-13.29,-0.81,
35271,1661560813806,-1.2162,-0.2573,0.1998,17.17,-2.21,-2.09,
35272,1661560813806,-1.1283,-0.0313,0.2003,10.67,-3.55,-1.26,
35273,1661560813806,-1.1957,-0.1299,0.4943,11.87,1.1,-2.0,
35274,1661560813807,-1.1469,0.0307,0.5489,12.27,-1.86,-5.0,
35275,1661560813807,-1.1786,0.251,-0.1083,14.77,-10.4,-2.99,
35276,1661560813808,-1.2006,-0.0327,0.1573,9.56,-1.11,-5.0,
35277,1661560813808,-1.2411,0.3701,0.6236,6.08,2.61,-1.08,
35278,1661560813809,-1.1244,0.0972,-0.1766,6.58,-4.07,-2.36,
35279,1661560813809,-1.2255,0.2251,0.2135,8.58,5.33,-5.55,
35280,1661560813810,-1.2328,0.2822,0.7115,7.79,10.91,-5.19,
35281,1661560813810,-1.2631,0.2197,0.4244,7.07,-1.78,-10.21,
35282,1661560813811,-1.1435,0.1777,-0.2147,12.27,-4.57,-5.55,
35283,1661560813811,-1.1034,0.104,0.7355,8.98,17.67,-5.83,
35284,1661560813811,-1.0898,0.2441,0.2858,4.58,13.78,-6.47,
35285,1661560813812,-1.0937,0.3345,-0.267,5.27,1.51,-3.81,
35286,1661560813812,-0.8964,0.0327,-0.0463,6.69,-2.21,-2.0,
35287,1661560813813,-1.1098,0.3061,0.5152,13.87,-0.93,-2.9,
35288,1661560813813,-0.9125,0.1489,-0.2294,10.85,-12.69,-4.73,
35289,1661560813814,-1.1205,0.1235,-0.0473,10.07,-9.99,-1.26,
35290,1661560813814,-1.0873,0.2475,0.671,6.78,2.7,-2.09,
35291,1661560813815,-0.8984,0.2705,0.3971,6.47,-1.78,-5.37,
35292,1661560813815,-0.9706,0.4243,-0.0609,9.97,0.58,-6.91,
35293,1661560813816,-0.9477,0.2793,0.6354,10.78,10.15,-5.46,
35294,1661560813816,-1.0356,0.4995,0.317,16.07,7.36,-6.56,
35295,1661560813816,-0.8906,0.6885,-0.0282,13.17,10.39,-7.28,
35296,1661560813817,-0.8613,0.4775,0.1383,7.18,14.97,-3.63,
35297,1661560813817,-0.8886,0.5664,0.2086,9.27,11.33,-10.74,
35298,1661560813818,-0.7875,0.5327,-0.2587,13.07,-0.59,-7.73,
35299,1661560813818,-0.9491,0.6553,0.1549,21.26,1.35,-15.12,
35300,1661560813819,-0.912,0.501,0.005,23.47,-2.12,-8.83,
35301,1661560813819,-0.8315,0.3017,-0.1771,21.96,-1.95,-11.56,
35302,1661560813820,-0.8398,0.5737,0.2101,17.96,6.43,-9.56,
35303,1661560813820,-0.7763,0.4341,0.0392,21.06,2.2,-12.2,
35304,1661560813821,-0.7197,0.1518,-0.2196,25.47,6.26,-7.92,
35305,1661560813821,-0.7729,0.3105,0.068,28.06,6.84,-2.99,
35306,1661560813821,-0.7118,0.0347,-0.2147,29.06,7.86,-6.01,
35307,1661560813822,-0.7118,0.0083,-0.4696,28.57,-8.89,-2.81,
35308,1661560813822,-0.935,0.103,-0.1473,24.46,-7.37,-5.19,
35309,1661560813823,-0.704,-0.2012,-0.0404,25.47,-16.75,0.02,
35310,1661560813823,-0.8437,0.0854,-0.3329,29.76,-11.67,-2.99,
35311,1661560813824,-0.7138,-0.2007,0.109,24.37,-3.81,-1.17,
35312,1661560813824,-1.0551,0.001,0.0777,21.17,-18.11,-4.27,
35313,1661560813825,-0.9184,-0.0869,0.3077,19.47,-17.42,-2.36,
35314,1661560813825,-1.0409,0.0474,0.2994,25.27,-10.66,-2.36,
35315,1661560813826,-1.0092,0.2012,0.1739,25.06,10.23,0.38,
35316,1661560813826,-0.8661,-0.0908,0.0411,22.66,5.4,-3.26,
35317,1661560813826,-1.0282,0.0723,0.2418,18.86,6.84,-4.27,
35318,1661560813828,-0.9697,0.1167,0.1622,25.36,-12.52,-4.64,
35319,1661560813828,-0.9931,-0.1152,-0.143,26.95,-19.54,-2.45,
35320,1661560813828,-0.9804,0.2622,0.0035,25.87,-13.96,-6.1,
35321,1661560813828,-0.872,-0.0064,-0.0614,18.07,-8.04,2.02,
35322,1661560813829,-0.9853,-0.1489,-0.0131,16.27,-4.24,-5.73,
35323,1661560813829,-0.9872,0.105,0.0817,19.26,-14.39,-0.81,
35324,1661560813830,-1.0585,-0.1489,0.1656,21.47,-17.94,-0.53,
35325,1661560813830,-1.018,-0.1773,-0.1078,21.56,-9.3,1.12,
35326,1661560813831,-1.123,-0.3296,0.381,18.27,2.78,-1.45,
35327,1661560813831,-1.1689,-0.0796,0.3419,16.86,-1.11,0.93,
35328,1661560813832,-1.101,-0.1826,-0.059,16.97,-13.36,0.38,
35329,1661560813832,-1.0346,-0.398,0.1276,12.36,-14.13,0.29,
35330,1661560813833,-1.2607,0.0049,0.4762,11.68,2.87,0.2,
35331,1661560813833,-1.1249,-0.147,-0.0658,12.47,-0.93,5.21,
35332,1661560813834,-1.2626,-0.2066,0.107,8.58,-1.02,4.4,
35333,1661560813834,-1.2499,0.1665,0.9625,4.78,1.44,1.19,
35334,1661560813834,-1.1449,0.0161,0.5162,4.98,-13.2,3.94,
35335,1661560813835,-1.224,0.0561,-0.2645,11.07,-9.4,1.28,
35336,1661560813835,-1.2045,0.1211,0.8234,11.97,2.54,0.29,
35337,1661560813836,-1.2929,0.1894,0.4742,11.26,7.86,0.38,
35338,1661560813836,-1.1191,0.3227,-0.014,9.48,1.61,4.85,
35339,1661560813837,-1.0634,0.1943,0.1661,5.88,11.08,6.85,
35340,1661560813837,-1.0615,0.4414,0.6168,4.47,11.25,0.11,
35341,1661560813837,-0.9477,0.4546,-0.3373,4.37,-4.32,0.75,
35342,1661560813838,-0.9257,0.2466,-0.4769,8.37,-7.87,-1.45,
35343,1661560813838,-1.0253,0.4375,0.3595,9.68,-3.38,-2.81,
35344,1661560813839,-1.0146,0.4717,0.1681,11.57,1.1,-4.54,
35345,1661560813839,-0.978,0.4048,-0.2328,12.27,2.61,-3.54,
35346,1661560813840,-0.9784,0.3701,0.3404,9.57,3.38,-4.18,
35347,1661560813840,-1.0077,0.3384,0.5367,8.98,8.88,-5.55,
35348,1661560813841,-0.9526,0.3784,0.111,11.26,6.0,-3.35,
35349,1661560813841,-0.9623,0.2734,-0.059,12.36,0.92,-1.17,
35350,1661560813841,-0.9531,0.2978,0.3863,13.07,2.78,-0.81,
35351,1661560813842,-1.0805,0.4448,0.443,10.78,0.67,-1.45,
35352,1661560813842,-0.9926,0.2851,-0.0004,14.87,7.53,-2.55,
35353,1661560813843,-0.8901,0.2261,-0.0277,13.37,8.88,-3.45,
35354,1661560813843,-0.9955,0.331,0.4015,15.96,2.78,-4.27,
35355,1661560813844,-0.9321,0.2959,0.0065,18.38,-7.78,-2.18,
35356,1661560813844,-0.9872,0.2353,0.068,20.27,-5.41,-4.73,
35357,1661560813845,-0.9413,0.1567,0.2721,19.87,-3.89,1.65,
35358,1661560813845,-0.9955,0.4238,0.4112,17.37,7.27,-4.45,
35359,1661560813845,-0.7934,0.3974,0.0499,20.18,8.62,-5.09,
35360,1661560813846,-0.7573,0.167,-0.226,18.77,6.5,-3.26,
35361,1661560813846,-0.789,0.4184,-0.0765,19.57,-2.79,-4.73,
35362,1661560813847,-0.766,0.3423,-0.0097,25.96,-1.95,-0.71,
35363,1661560813847,-0.7304,0.3369,-0.079,29.87,4.31,-7.18,
35364,1661560813848,-0.6987,0.4741,-0.5131,25.58,-3.14,-5.83,
35365,1661560813848,-0.746,0.0205,-0.4579,22.86,-10.66,-5.92,
35366,1661560813849,-0.8027,0.375,0.2735,25.76,-9.47,-11.56,
35367,1661560813849,-0.7895,0.0708,-0.1581,28.06,-12.36,-5.64,
35368,1661560813850,-0.7958,0.2529,-0.2855,29.76,-7.61,-7.37,
35369,1661560813850,-0.8588,0.2002,0.1588,24.27,0.51,-4.54,
35370,1661560813851,-1.0634,-0.1426,0.7047,24.86,3.13,-8.01,
35371,1661560813851,-0.9242,-0.0869,-0.2089,24.86,-10.66,-8.28,
35372,1661560813852,-0.9579,-0.1651,-0.0663,27.56,-3.55,-5.83,
35373,1661560813852,-0.9091,-0.0952,0.5724,24.57,2.78,0.75,
35374,1661560813853,-1.037,-0.0884,-0.1571,23.76,-3.22,-0.07,
35375,1661560813853,-0.9252,-0.5195,-0.3534,24.07,-13.62,1.74,
35376,1661560813854,-1.2065,-0.1362,0.5245,22.86,-15.91,0.93,
35377,1661560813854,-1.0859,-0.0835,0.628,21.87,-12.19,1.38,
35378,1661560813855,-0.8681,-0.27,-0.2933,20.07,-19.45,5.3,
35379,1661560813855,-0.9506,-0.2315,-0.1571,18.16,-12.95,3.39,
35380,1661560813855,-1.1513,-0.1987,0.6163,17.87,-17.77,2.47,
35381,1661560813856,-0.9897,0.0718,0.1378,23.17,-11.67,1.12,
35382,1661560813856,-0.9745,-0.3091,-0.3275,18.67,-8.3,5.48,
35383,1661560813857,-1.124,0.0244,0.4708,11.68,6.34,2.02,
35384,1661560813857,-1.225,0.2148,0.5485,11.97,0.25,1.38,
35385,1661560813858,-1.0395,-0.0576,-0.1527,14.16,-9.56,0.02,
35386,1661560813858,-1.0507,0.23,-0.0419,17.57,-7.03,-1.17,
35387,1661560813859,-1.1679,0.0557,0.4777,14.18,-9.3,-0.71,
35388,1661560813859,-1.1879,0.1177,0.3898,5.88,-3.14,-1.81,
35389,1661560813859,-1.1518,0.3047,0.211,7.37,-3.72,-4.91,
35390,1661560813860,-1.1108,0.062,0.1525,10.07,5.57,-6.73,
35391,1661560813860,-1.225,0.1421,0.4034,13.68,9.05,-1.72,
35392,1661560813861,-1.245,0.1279,0.5294,13.26,9.13,-5.0,
35393,1661560813861,-1.1713,0.0581,0.1656,13.26,6.59,-3.63,
35394,1661560813862,-1.1567,0.1836,0.0758,9.27,3.3,-7.18,
35395,1661560813862,-1.1435,0.0542,0.4235,6.17,8.46,0.38,
35396,1661560813863,-1.0732,0.0972,0.2799,3.68,0.67,-0.44,
35397,1661560813863,-1.1381,0.3169,0.0152,8.15,-1.28,1.83,
35398,1661560813863,-0.8974,0.0679,-0.1664,9.57,-3.48,1.56,
35399,1661560813864,-1.1156,0.1753,0.4039,10.97,-1.78,-2.36,
35400,1661560813864,-1.0615,0.2695,0.3868,7.97,-6.18,-2.71,
35401,1661560813865,-1.1552,0.1538,-0.2855,8.27,-17.77,0.2,
35402,1661560813865,-1.082,0.2876,0.0079,10.87,4.14,-2.27,
35403,1661560813866,-0.9843,0.354,0.7052,12.87,10.06,-0.17,
35404,1661560813866,-0.9721,0.4473,0.068,11.07,8.79,-0.35,
35405,1661560813866,-0.8974,0.4385,0.0265,8.18,4.9,0.02,
35406,1661560813867,-0.9574,0.3779,0.3092,12.58,6.09,4.67,
35407,1661560813867,-0.874,0.7119,0.3727,10.67,3.21,-4.45,
35408,1661560813868,-0.8188,0.603,-0.2548,14.47,-2.71,-3.63,
35409,1661560813868,-0.9335,0.4038,0.13,13.77,3.54,-6.1,
35410,1661560813870,-0.9565,0.6489,0.3463,9.97,4.57,-5.0,
35411,1661560813870,-0.8603,0.6084,0.1774,15.06,4.81,-5.37,
35412,1661560813870,-0.8281,0.6069,-0.0853,21.67,8.53,-7.18,
35413,1661560813870,-0.9018,0.3042,0.1549,23.36,11.42,-9.47,
35414,1661560813870,-0.8808,0.4033,0.3653,22.97,13.02,-11.47,
35415,1661560813871,-0.7475,0.3818,-0.3031,22.86,5.33,-6.28,
35416,1661560813871,-0.7323,0.166,-0.3778,23.87,10.49,-6.01,
35417,1661560813872,-0.7079,0.1211,0.0465,23.56,8.79,-6.19,
35418,1661560813872,-0.851,0.2949,-0.0907,23.29,-0.42,-3.72,
35419,1661560813873,-0.6923,-0.1294,-0.7304,28.46,-18.7,-2.0,
35420,1661560813873,-0.936,0.0508,0.0187,30.26,-8.54,-5.37,
35421,1661560813874,-0.6498,-0.041,0.42,26.26,-0.26,-0.53,
35422,1661560813874,-0.8964,0.0078,-0.3998,22.77,-10.83,-4.45,
35423,1661560813875,-0.6767,-0.0903,0.192,21.26,-9.4,2.02,
35424,1661560813875,-0.8866,-0.0147,0.4498,24.77,-17.68,-2.36,
35425,1661560813876,-0.9721,0.1689,0.1202,25.96,-6.44,1.19,
35426,1661560813876,-0.8163,-0.043,-0.0248,24.97,-3.89,3.21,
35427,1661560813877,-0.9526,0.2373,0.3805,23.67,12.59,-2.71,
35428,1661560813877,-0.8486,0.1606,-0.1107,23.56,-0.59,-3.72,
35429,1661560813878,-0.9609,-0.1436,-0.4227,23.96,-14.55,-2.45,
35430,1661560813878,-0.9716,0.2095,0.3932,24.66,-11.59,0.84,
35431,1661560813878,-0.9838,0.1011,0.3043,26.66,-15.23,-1.45,
35432,1661560813880,-0.9306,0.0268,-0.3309,24.16,-12.86,-0.99,
35433,1661560813880,-0.954,-0.1362,0.0563,25.18,-6.68,-0.99,
35434,1661560813880,-1.0883,-0.1016,0.5333,21.37,-3.22,-2.71,
35435,1661560813880,-1.0107,-0.0449,-0.1327,20.37,-15.65,-2.09,
35436,1661560813881,-1.0029,-0.3843,0.2057,21.76,-2.55,0.75,
35437,1661560813881,-1.1454,-0.1636,0.2716,20.86,-9.64,-0.53,
35438,1661560813882,-1.0497,-0.3154,-0.1166,19.87,-18.28,1.02,
35439,1661560813882,-1.0615,-0.3984,0.0294,19.57,-17.51,-0.62,
35440,1661560813883,-1.2001,-0.0591,0.3556,17.57,-0.52,3.57,
35441,1661560813883,-1.0239,-0.3076,-0.0697,14.56,-6.68,2.93,
35442,1661560813884,-1.2568,-0.1978,0.1554,7.77,-13.03,2.84,
35443,1661560813884,-1.204,-0.1118,0.5377,12.36,-21.66,3.66,
35444,1661560813884,-1.2319,-0.1314,-0.0951,11.68,-22.24,7.59,
35445,1661560813885,-1.2685,0.1973,0.8985,11.97,18.27,3.76,
35446,1661560813886,-1.1825,0.0786,0.8219,8.87,5.74,9.13,
35447,1661560813886,-1.2865,0.0542,-0.1332,7.27,-4.91,1.74,
35448,1661560813886,-1.2167,0.1865,0.4684,6.58,-0.35,1.38,
35449,1661560813887,-1.3251,0.2251,0.9889,7.77,4.64,0.02,
35450,1661560813887,-1.1156,0.4199,0.4083,9.17,-7.44,-7.18,
35451,1661560813888,-0.9804,0.2871,-0.4721,12.58,-2.62,-3.08,
35452,1661560813888,-1.1088,0.331,0.5636,12.96,14.88,-2.55,
35453,1661560813888,-1.1381,0.4839,0.3629,8.08,6.09,-2.9,
35454,1661560813889,-1.0375,0.2588,-0.3681,5.57,1.18,-2.09,
35455,1661560813889,-1.0082,0.3462,-0.0785,6.67,2.11,-7.83,
35456,1661560813890,-1.0492,0.4531,0.5856,11.69,6.59,-2.99,
35457,1661560813890,-1.0312,0.4072,-0.0014,15.48,-4.74,-4.0,
35458,1661560813891,-0.9657,0.2012,-0.3075,14.59,3.54,-3.9,
35459,1661560813891,-1.0102,0.206,0.5402,11.68,16.57,1.12,
35460,1661560813892,-0.9994,0.3232,0.5104,7.77,14.54,-3.26,
35461,1661560813892,-1.0102,0.3574,-0.3871,11.26,-1.45,-4.45,
35462,1661560813892,-0.8564,0.1035,-0.0765,13.57,-7.7,-4.54,
35463,1661560813893,-1.1728,0.4443,0.7179,12.27,-2.71,-3.54,
35464,1661560813893,-0.7392,0.1689,-0.2372,12.87,-3.38,2.38,
35465,1661560813894,-0.9135,0.3179,0.0577,12.99,-2.97,0.48,
35466,1661560813894,-0.9853,0.4043,0.8097,11.48,16.65,1.19,
35467,1661560813895,-0.9321,0.435,0.4498,11.97,0.92,1.65,
35468,1661560813895,-0.9003,0.3359,-0.5004,20.27,0.92,-4.27,
35469,1661560813896,-0.9164,0.2934,0.609,23.17,4.73,-4.54,
35470,1661560813896,-1.0009,0.4551,0.8072,20.48,9.46,-7.18,
35471,1661560813897,-0.7826,0.7143,-0.2323,22.77,2.03,-4.64,
35472,1661560813897,-0.601,0.2197,-0.6166,22.25,7.53,0.66,
35473,1661560813898,-0.745,0.5737,-0.1019,23.49,-2.45,-6.73,
35474,1661560813898,-0.7719,0.2812,-0.267,23.07,-12.19,-5.55,
35475,1661560813898,-0.7289,0.4023,-0.1132,27.87,-5.08,-3.45,
35476,1661560813899,-0.7695,0.439,-0.2572,32.17,-7.78,-2.18,
35477,1661560813899,-0.6303,0.0254,-0.3363,24.97,-8.21,-5.92,
35478,1661560813900,-0.7885,0.3706,0.2677,25.17,-6.94,-9.56,
35479,1661560813900,-0.8168,0.022,-0.0057,27.96,-8.3,-4.09,
35480,1661560813901,-0.8769,-0.125,-0.2357,29.96,-11.09,-3.54,
35481,1661560813901,-1.0107,0.1733,0.422,26.46,2.2,-5.28,
35482,1661560813902,-0.8818,-0.2466,0.1402,25.27,0.67,0.66,
35483,1661560813902,-0.8696,-0.2129,-0.3163,21.17,-8.54,-0.81,
35484,1661560813903,-1.0273,-0.0425,-0.1132,24.57,-5.08,-1.54,
35485,1661560813903,-0.9311,-0.2935,0.2858,26.97,-14.81,-2.71,
35486,1661560813905,-1.0068,-0.0552,-0.077,27.76,-13.88,-0.9,
35487,1661560813905,-1.0048,-0.44,0.0065,19.08,-14.05,2.11,
35488,1661560813905,-1.142,-0.1626,0.379,21.76,-17.59,-1.54,
35489,1661560813905,-0.9257,-0.0982,0.4767,23.87,-10.16,0.57,
35490,1661560813905,-1.0146,-0.1782,-0.2025,20.79,-13.03,-0.17,
35491,1661560813906,-0.9262,-0.1192,0.0235,17.76,-7.78,2.29,
35492,1661560813906,-1.0756,-0.2549,0.3702,19.57,-6.6,-0.99,
35493,1661560813907,-1.0893,0.1059,0.486,24.07,-2.62,-0.81,
35494,1661560813907,-0.9882,-0.0327,-0.4218,24.97,-17.25,1.12,
35495,1661560813908,-1.1362,-0.2666,-0.0765,9.17,-9.73,2.47,
35496,1661560813908,-1.1376,0.2202,0.6251,9.75,-4.32,-2.18,
35497,1661560813909,-1.1459,-0.1235,-0.244,16.57,-18.44,0.11,
35498,1661560813909,-1.1528,0.1733,0.0631,22.27,-16.49,-0.99,
35499,1661560813910,-1.2367,0.1855,0.6832,16.16,-1.52,-0.07,
35500,1661560813910,-1.249,0.02,0.7237,7.88,4.14,-1.63,
35501,1661560813911,-1.12,0.0688,-0.2123,7.18,-0.09,0.2,
35502,1661560813911,-1.206,-0.1314,0.4835,6.99,10.56,1.38,
35503,1661560813911,-1.2602,0.2344,0.5914,11.17,9.98,-8.56,
35504,1661560813912,-1.2182,0.2671,0.1681,15.48,4.57,-7.37,
35505,1661560813912,-1.0951,-0.2217,-0.1766,16.77,-3.98,-2.64,
35506,1661560813913,-1.3359,0.2163,0.5436,7.97,7.69,-5.64,
35507,1661560813913,-1.0502,0.0444,0.1622,8.87,-1.28,-2.09,
35508,1661560813914,-1.1181,0.0444,-0.0106,5.16,-4.32,-0.35,
35509,1661560813914,-1.1303,0.2471,0.3824,5.47,3.3,-3.17,
35510,1661560813915,-0.8427,0.1836,0.316,6.87,-9.64,-0.9,
35511,1661560813915,-1.0751,0.397,0.1344,11.48,-7.03,1.56,
35512,1661560813916,-0.9955,0.1694,0.422,14.77,4.81,1.93,
35513,1661560813916,-1.2074,0.1357,0.1407,13.46,-1.45,-4.0,
35514,1661560813916,-0.9897,0.5141,0.0611,10.36,13.45,-5.0,
35515,1661560813917,-1.018,0.439,0.4313,6.66,9.46,-2.55,
35516,1661560813917,-0.8344,0.4741,-0.0453,5.89,8.29,-6.47,
35517,1661560813918,-0.8471,0.4805,-0.2431,14.33,-8.05,-3.35,
35518,1661560813918,-0.9433,0.4932,0.0909,15.26,1.27,-6.56,
35519,1661560813919,-0.9448,0.7202,0.3966,18.86,0.84,-8.92,
35520,1661560813919,-0.8676,0.3169,-0.1669,13.87,5.74,-5.37,
35521,1661560813920,-0.9096,0.6167,0.2828,5.97,14.62,-10.92,
35522,1661560813920,-0.8915,0.5415,0.3107,10.67,8.36,-5.73,
35523,1661560813920,-0.8027,0.4277,0.1573,18.07,8.96,-10.3,
35524,1661560813921,-0.8168,0.3745,-0.1195,29.87,0.58,-8.01,
35525,1661560813921,-0.8989,0.2046,0.2032,26.46,8.96,-5.64,
35526,1661560813922,-0.8749,0.3154,0.1568,22.97,5.83,-9.29,
35527,1661560813922,-0.8447,0.2891,-0.2675,19.47,8.88,-4.82,
35528,1661560813923,-0.5698,0.1186,-0.2308,17.37,2.03,-5.19,
35529,1661560813923,-0.6904,0.166,-0.0194,19.47,0.17,-2.81,
35530,1661560813924,-0.767,0.063,-0.2289,27.06,-15.23,-2.0,
35531,1661560813924,-0.8442,-0.1143,-0.4579,33.36,-22.76,-0.9,
35532,1661560813924,-0.8666,0.2515,0.5748,25.03,-0.78,-4.73,
35533,1661560813925,-0.8715,0.0132,-0.0077,19.17,-3.81,-0.17,
35534,1661560813925,-0.749,0.1357,-0.3954,17.96,-6.01,-5.92,
35535,1661560813926,-0.7616,0.0928,-0.1117,26.37,-6.85,-6.19,
35536,1661560813926,-1.0121,-0.0547,0.4693,24.97,-5.34,-3.72,
35537,1661560813927,-0.8447,0.375,0.0514,26.46,-14.22,-4.54,
35538,1661560813927,-0.9145,0.0644,-0.3007,28.77,-4.24,-2.9,
35539,1661560813928,-0.9062,0.2305,0.0577,23.96,3.3,-2.71,
35540,1661560813928,-0.9477,0.1084,-0.057,20.27,-5.25,-4.54,
35541,1661560813929,-0.954,0.0049,0.1622,18.57,-9.9,-5.37,
35542,1661560813929,-0.9887,0.0752,0.1027,26.77,-17.94,-5.37,
35543,1661560813930,-0.9838,-0.0049,-0.1005,29.06,-10.83,-4.54,
35544,1661560813930,-0.9672,0.0078,0.1647,27.87,-6.68,-2.9,
35545,1661560813930,-1.0444,-0.1748,0.2633,23.87,-4.82,0.11,
35546,1661560813931,-1.018,-0.2954,0.0914,19.96,-5.17,-0.81,
35547,1661560813932,-1.0156,-0.1187,-0.0443,20.16,-10.66,0.75,
35548,1661560813932,-0.9848,-0.294,0.1095,21.76,-11.93,1.38,
35549,1661560813933,-1.2431,-0.2774,0.0817,23.36,-16.25,0.84,
35550,1661560813933,-1.1572,-0.2666,0.086,23.47,-17.51,3.02,
35551,1661560813933,-1.0048,-0.3594,0.0362,19.17,-16.08,5.11,
35552,1661560813934,-1.2182,-0.0855,0.36,17.25,-1.11,0.75,
35553,1661560813934,-1.1303,-0.3311,0.2374,9.46,-6.27,1.83,
35554,1661560813935,-1.2236,-0.0913,0.2765,9.27,-9.14,-2.64,
35555,1661560813935,-1.1396,0.0288,0.5485,12.78,-12.26,1.74,
35556,1661560813936,-1.1791,-0.0025,0.4581,17.26,-3.89,-2.18,
35557,1661560813936,-1.1967,0.206,0.2296,12.58,7.69,-1.9,
35558,1661560813937,-1.1362,0.0132,0.1827,7.27,12.76,0.57,
35559,1661560813937,-1.1738,0.2353,0.3868,2.98,16.15,2.02,
35560,1661560813937,-1.2255,0.3511,0.361,7.37,6.93,0.84,
35561,1661560813939,-1.1308,0.2573,0.0397,10.87,-3.38,-0.07,
35562,1661560813939,-1.0512,0.334,-0.0018,13.26,-5.58,2.47,
35563,1661560813939,-1.1054,0.2788,0.3287,11.57,-1.19,2.02,
35564,1661560813939,-1.1493,0.3706,0.3624,7.88,2.95,-3.35,
35565,1661560813940,-1.1293,0.3911,0.2037,6.08,3.8,-2.9,
35566,1661560813940,-1.0414,0.3003,0.1891,8.67,7.27,-0.17,
35567,1661560813941,-1.0297,0.2666,0.2242,10.47,3.8,0.48,
35568,1661560813941,-1.0351,0.2383,0.2193,14.36,3.71,-1.81,
35569,1661560813941,-0.9687,0.2305,0.1583,15.37,-1.45,1.38,
35570,1661560813942,-1.0741,0.2295,-0.0507,13.57,-2.62,1.83,
35571,1661560813942,-0.9682,0.1782,0.1456,11.97,7.69,5.57,
35572,1661560813943,-1.0116,0.3042,0.1827,8.78,2.95,2.75,
35573,1661560813943,-1.0414,0.3755,0.0582,8.58,1.27,-1.26,
35574,1661560813944,-0.8056,0.0991,-0.122,11.68,-4.74,-4.0,
35575,1661560813944,-1.1,0.4429,0.5177,13.77,-2.38,-4.54,
35576,1661560813945,-0.8193,0.3086,0.2692,11.97,-8.63,-1.45,
35577,1661560813945,-0.9218,0.3935,-0.1732,11.37,-6.44,-2.71,
35578,1661560813945,-0.9316,0.5015,0.3546,12.97,18.34,-5.37,
35579,1661560813946,-0.9365,0.4106,0.5831,17.76,12.35,1.19,
35580,1661560813946,-0.8764,0.5058,-0.1898,18.86,3.97,-0.26,
35581,1661560813947,-0.8061,0.4307,0.1915,21.37,4.47,0.66,
35582,1661560813947,-0.8022,0.5786,0.3136,23.4,10.56,-3.54,
35583,1661560813949,-0.6489,0.6899,-0.1127,22.77,6.26,-3.81,
35584,1661560813949,-0.6049,0.313,-0.6659,21.47,6.09,1.02,
35585,1661560813949,-0.7856,0.4497,-0.0253,22.46,3.38,-4.36,
35586,1661560813949,-0.7953,0.4004,0.0221,23.06,-8.47,-0.71,
35587,1661560813949,-0.7524,0.3149,-0.2748,25.17,-10.92,-2.9,
35588,1661560813950,-0.7382,0.23,-0.2738,32.37,-3.98,-6.19,
35589,1661560813950,-0.7431,0.0806,-0.0946,31.16,7.36,-4.0,
35590,1661560813951,-0.7865,0.1802,0.1896,27.47,2.03,-3.72,
35591,1661560813951,-0.8471,0.0088,-0.2611,23.06,-6.01,-1.26,
35592,1661560813952,-0.8134,-0.1646,-0.1015,23.06,-12.26,-1.72,
35593,1661560813952,-0.9706,0.1064,0.2711,24.57,-8.47,-3.08,
35594,1661560813953,-0.8862,-0.1821,-0.0004,29.87,-4.15,-1.17,
35595,1661560813953,-0.9789,-0.2178,-0.2382,22.46,-9.56,-2.99,
35596,1661560813954,-0.9823,-0.1172,0.3483,20.97,-7.87,-4.18,
35597,1661560813954,-0.8989,-0.2012,0.336,24.66,-19.04,-3.63,
35598,1661560813955,-0.9804,-0.0557,0.0172,27.36,-13.2,1.12,
35599,1661560813955,-0.9906,-0.2896,0.1012,24.16,-6.27,3.94,
35600,1661560813955,-1.0805,-0.0606,0.3531,20.97,-5.84,0.02,
35601,1661560813956,-1.0107,-0.0098,0.2193,23.47,-11.93,3.39,
35602,1661560813957,-1.04,-0.1992,-0.0604,25.36,-11.0,1.74,
35603,1661560813957,-0.9902,0.0229,0.0416,23.17,-8.97,2.57,
35604,1661560813957,-0.9521,-0.1231,0.109,20.07,-7.87,-0.71,
35605,1661560813958,-1.0849,0.0268,0.0826,19.67,-11.0,-1.72,
35606,1661560813958,-1.0463,-0.0274,-0.1215,20.37,-13.88,1.19,
35607,1661560813959,-1.1747,-0.2588,0.1442,20.47,-12.26,1.19,
35608,1661560813959,-1.1454,0.1758,0.4361,15.96,-15.39,-1.36,
35609,1661560813960,-1.1523,-0.1475,0.1295,17.76,-11.43,-2.18,
35610,1661560813960,-1.1147,0.0474,0.2584,17.67,5.24,-4.91,
35611,1661560813961,-1.2201,0.0669,0.361,17.17,6.09,-5.37,
35612,1661560813961,-1.2201,-0.1724,0.4913,14.07,4.4,-1.63,
35613,1661560813962,-1.228,0.1211,0.1134,9.77,-3.05,-3.35,
35614,1661560813962,-1.1825,-0.127,0.1544,10.87,5.66,-1.72,
35615,1661560813962,-1.249,0.0967,0.4098,8.78,1.18,-4.64,
35616,1661560813963,-1.3373,0.2427,0.3566,12.07,5.83,0.57,
35617,1661560813963,-1.0527,-0.2041,-0.0433,12.87,-4.15,1.47,
35618,1661560813964,-1.267,0.1308,0.1778,8.85,-1.78,-0.17,
35619,1661560813964,-1.1479,0.1567,0.711,8.27,-0.42,-0.9,
35620,1661560813965,-1.1801,0.0591,0.067,7.27,-9.9,1.56,
35621,1661560813965,-1.1117,0.2905,0.1178,9.77,5.07,-1.54,
35622,1661560813965,-0.9115,0.3223,0.5504,12.36,7.86,-4.0,
35623,1661560813966,-1.0859,0.3481,0.2023,12.47,5.57,-2.55,
35624,1661560813966,-1.018,0.3061,0.111,9.68,2.11,-3.45,
35625,1661560813967,-1.1513,0.1738,0.1378,12.78,-1.02,0.02,
35626,1661560813967,-0.9863,0.5708,0.2467,10.27,0.08,-6.47,
35627,1661560813968,-0.8989,0.5596,-0.0634,12.27,1.27,-0.35,
35628,1661560813968,-0.8608,0.3335,-0.142,10.07,7.86,-5.28,
35629,1661560813969,-0.933,0.5112,-0.037,10.36,2.37,-0.81,
35630,1661560813969,-0.9545,0.5415,0.2745,10.67,-0.01,-2.64,
35631,1661560813970,-0.9345,0.5898,0.1725,16.57,-3.72,-3.72,
35632,1661560813970,-0.9018,0.4072,0.0865,17.67,0.92,-1.36,
35633,1661560813971,-0.9145,0.4951,0.4659,12.97,7.1,-9.38,
35634,1661560813971,-0.915,0.4785,-0.018,14.58,10.32,-7.18,
35635,1661560813971,-0.8349,0.3071,-0.1566,17.47,18.94,-2.99,
35636,1661560813972,-0.8315,0.3183,0.1744,18.57,11.84,-6.63,
35637,1661560813972,-0.9863,0.3799,0.1544,22.27,1.61,-7.73,
35638,1661560813973,-0.8105,0.1665,-0.306,24.07,-7.96,-3.45,
35639,1661560813973,-0.8403,0.2412,0.0763,25.47,6.5,-1.26,
35640,1661560813974,-0.7206,0.1831,0.0978,19.76,7.95,-0.62,
35641,1661560813974,-0.6757,0.1357,-0.2807,20.47,2.78,-4.91,
35642,1661560813975,-0.7826,0.0952,-0.1093,23.17,-5.17,-4.18,
35643,1661560813975,-0.8373,-0.0811,-0.0321,26.07,-15.23,-4.27,
35644,1661560813975,-0.7563,0.4141,0.3966,27.87,0.17,-5.28,
35645,1661560813976,-0.748,0.0786,-0.1464,28.96,-0.52,-3.72,
35646,1661560813976,-0.7275,0.1064,-0.3348,22.27,4.64,-5.83,
35647,1661560813977,-0.8237,0.2778,-0.0106,19.96,-2.45,-7.73,
35648,1661560813977,-0.8886,0.1699,0.2618,22.46,-9.14,-8.19,
35649,1661560813978,-0.7323,0.3613,-0.3309,30.37,-12.86,-6.56,
35650,1661560813978,-0.7436,0.1055,-0.2709,28.98,-5.67,-2.99,
35651,1661560813979,-0.8788,0.2295,0.2921,20.16,-1.45,-4.82,
35652,1661560813979,-0.9242,0.0908,-0.246,19.57,-16.92,-6.47,
35653,1661560813980,-1.0663,-0.1109,0.0323,25.87,-12.6,-7.64,
35654,1661560813980,-0.9701,0.0674,0.3273,29.56,-7.96,-4.0,
35655,1661560813981,-0.9638,-0.0283,0.1676,28.26,-4.48,-5.19,
35656,1661560813981,-0.9272,-0.2715,-0.0473,26.45,-5.25,-3.45,
35657,1661560813982,-1.0571,-0.1773,0.213,23.47,-7.37,-3.26,
35658,1661560813982,-0.9667,-0.2857,0.2745,20.88,-9.47,-2.0,
35659,1661560813982,-1.1152,-0.1509,-0.1469,19.26,-13.62,-1.9,
35660,1661560813983,-1.0781,-0.4458,0.025,19.87,-7.7,4.95,
35661,1661560813983,-1.2719,-0.3433,0.1246,21.76,-20.31,3.66,
35662,1661560813984,-1.2406,-0.1362,0.2447,21.87,-22.24,2.47,
35663,1661560813984,-1.0038,-0.332,0.2311,20.97,-27.83,5.76,
35664,1661560813985,-1.1674,-0.1821,0.1778,15.57,-7.11,4.58,
35665,1661560813985,-1.039,-0.1001,0.2833,14.36,-1.19,3.94,
35666,1661560813987,-1.2411,-0.0947,0.3229,10.27,2.44,5.48,
35667,1661560813987,-1.2021,0.0557,0.3063,14.16,-3.05,1.38,
35668,1661560813988,-1.142,0.0576,0.2692,18.67,-6.77,3.48,
35669,1661560813988,-1.1205,0.2334,0.4108,15.08,0.58,-1.9,
35670,1661560813988,-1.0834,0.146,0.0397,12.07,-3.48,-1.9,
35671,1661560813989,-1.1679,0.1279,0.0602,4.67,0.75,-1.54,
35672,1661560813989,-1.289,0.3872,0.6007,6.17,0.67,-3.35,
35673,1661560813989,-1.1469,0.3813,0.4908,12.78,4.06,-0.26,
35674,1661560813989,-1.0976,0.2925,-0.0497,14.58,5.07,-5.73,
35675,1661560813990,-1.1069,0.2964,0.4225,13.48,7.19,-5.28,
35676,1661560813990,-1.1767,0.3745,0.6144,10.27,5.83,-5.28,
35677,1661560813991,-1.1171,0.2436,0.1954,8.87,2.54,-7.0,
35678,1661560813991,-1.0087,0.1294,0.0065,11.28,11.49,0.11,
35679,1661560813992,-1.0512,0.2568,0.442,16.27,9.56,0.48,
35680,1661560813992,-1.0712,0.2456,0.0079,14.07,3.63,-1.63,
35681,1661560813992,-0.9037,0.0737,-0.2138,13.87,-6.27,2.57,
35682,1661560813993,-1.1015,0.1333,0.0968,7.18,-1.69,-5.55,
35683,1661560813993,-1.1327,0.2422,0.3409,8.87,-7.44,1.83,
35684,1661560813994,-0.9745,0.1924,-0.1771,9.27,-11.5,-4.91,
35685,1661560813994,-1.0239,0.2695,0.3317,12.58,0.34,-0.07,
35686,1661560813996,-0.9203,0.2095,0.5231,12.97,5.57,0.57,
35687,1661560813996,-1.1069,0.5137,0.2882,14.15,2.87,-4.09,
35688,1661560813996,-0.9159,0.4097,0.1783,10.78,0.25,1.28,
35689,1661560813996,-1.0048,0.4433,0.2609,9.95,5.74,-3.81,
35690,1661560813996,-0.9198,0.6421,0.2867,10.97,6.09,-1.9,
35691,1661560813997,-0.9003,0.4267,-0.0365,18.07,1.1,-1.63,
35692,1661560813997,-0.9174,0.5171,0.0865,22.66,10.06,-6.73,
35693,1661560813998,-0.8364,0.6865,-0.0712,23.96,5.07,-4.27,
35694,1661560813998,-0.7607,0.436,-0.266,20.16,5.57,-4.18,
35695,1661560813999,-0.6655,0.5488,-0.0463,16.77,6.84,-4.09,
35696,1661560813999,-0.726,0.4111,-0.0844,21.56,-1.11,-4.73,
35697,1661560814000,-0.7948,0.3799,-0.1513,25.06,-1.78,-4.27,
35698,1661560814000,-0.7704,0.4038,0.0275,28.66,1.27,-4.64,
35699,1661560814000,-0.7416,0.0395,-0.056,29.96,6.17,-1.9,
35700,1661560814001,-0.7646,0.1777,-0.2313,32.17,0.58,-7.55,
35701,1661560814001,-0.8412,0.144,-0.1229,29.35,1.77,-5.09,
35702,1661560814002,-0.7597,-0.1133,0.0187,27.76,-9.47,-6.56,
35703,1661560814002,-0.7846,0.0996,-0.2313,22.66,-10.16,-7.83,
35704,1661560814003,-0.6967,-0.1558,-0.1063,22.86,-5.34,1.56,
35705,1661560814003,-0.954,-0.0645,-0.0409,24.77,-11.09,-4.73,
35706,1661560814004,-0.9262,-0.1338,0.0782,28.37,-16.92,-1.17,
35707,1661560814004,-0.9345,-0.1284,0.0797,25.87,-20.38,-1.54,
35708,1661560814005,-1.0453,0.0073,0.2701,24.86,-4.15,2.75,
35709,1661560814005,-0.7543,-0.1372,0.2745,24.66,-4.41,-1.17,
35710,1661560814006,-1.0385,0.0122,0.0655,23.56,-15.48,-5.0,
35711,1661560814006,-0.9911,-0.0791,-0.0038,26.26,-16.66,0.48,
35712,1661560814007,-1.1576,-0.2183,0.4469,27.96,-4.32,-0.81,
35713,1661560814007,-1.018,0.2485,0.2652,23.36,-1.86,3.02,
35714,1661560814007,-0.9672,-0.2407,-0.5936,25.17,-11.33,-0.53,
35715,1661560814008,-1.0024,-0.0171,0.0831,22.37,-7.2,3.3,
35716,1661560814008,-1.0624,-0.063,0.4283,19.76,-5.25,-0.44,
35717,1661560814009,-1.1147,-0.0962,-0.0028,22.97,-17.09,2.02,
35718,1661560814010,-1.0253,-0.0269,-0.3949,21.56,-22.84,-0.53,
35719,1661560814010,-1.185,-0.2378,0.6056,17.06,-6.77,-1.08,
35720,1661560814010,-1.1982,0.0654,0.5148,14.77,-9.81,-3.17,
35721,1661560814011,-1.0751,-0.2505,-0.1366,17.67,-2.04,-2.18,
35722,1661560814011,-1.1298,-0.1221,0.5475,18.07,9.46,-0.17,
35723,1661560814012,-1.2499,-0.0191,0.3566,12.36,3.21,-2.64,
35724,1661560814012,-1.1323,-0.1651,0.0699,9.89,-4.74,-0.26,
35725,1661560814013,-1.2255,-0.0484,0.0909,10.47,-7.78,-6.01,
35726,1661560814013,-1.2817,-0.0015,0.4225,11.97,-2.04,-2.55,
35727,1661560814014,-1.2104,-0.1089,-0.1264,14.07,-4.15,-1.36,
35728,1661560814014,-1.249,0.1787,0.4552,11.48,9.63,2.47,
35729,1661560814014,-1.0947,-0.0166,0.2911,7.18,-7.44,1.83,
35730,1661560814015,-1.2651,0.1802,0.0148,7.37,-7.78,7.4,
35731,1661560814015,-1.142,0.2158,0.462,9.16,-1.78,4.12,
35732,1661560814016,-1.2016,0.126,0.4874,12.97,-0.18,1.74,
35733,1661560814016,-1.0346,0.4497,0.129,13.68,11.42,2.11,
35734,1661560814017,-1.0966,0.1479,0.1998,12.67,16.74,-0.99,
35735,1661560814017,-1.0629,0.249,0.3795,9.17,19.53,-1.72,
35736,1661560814018,-1.0829,0.5718,0.11,8.98,-1.78,-2.64,
35737,1661560814018,-1.0419,0.124,-0.3388,14.09,-18.28,-2.55,
35738,1661560814019,-1.0546,0.5644,0.3595,13.36,-8.63,-4.54,
35739,1661560814019,-0.9404,0.3965,0.2384,9.77,3.47,-3.26,
35740,1661560814019,-0.9882,0.3974,-0.0971,11.17,5.4,-0.81,
35741,1661560814020,-0.9438,0.5264,-0.0458,13.17,7.6,-0.26,
35742,1661560814020,-1.0282,0.4541,0.6417,11.87,7.19,-4.54,
35743,1661560814021,-0.9452,0.4697,0.0318,15.48,1.61,-4.82,
35744,1661560814021,-0.9145,0.2563,0.0099,14.97,3.38,-5.64,
35745,1661560814022,-0.9057,0.2334,0.3282,14.58,10.65,-0.99,
35746,1661560814022,-0.9828,0.5259,0.214,13.97,12.59,-4.45,
35747,1661560814023,-0.727,0.3027,-0.3207,15.78,11.49,1.74,
35748,1661560814023,-0.8896,0.2842,0.1193,19.96,7.95,1.02,
35749,1661560814023,-0.914,0.2705,0.1359,23.56,-1.28,-1.45,
35750,1661560814024,-0.808,0.1699,-0.2587,25.67,-16.42,1.74,
35751,1661560814024,-0.7275,0.2837,-0.036,25.17,0.25,-0.99,
35752,1661560814025,-0.6293,0.2114,0.3702,19.26,3.3,3.85,
35753,1661560814025,-0.8031,0.2778,-0.2533,19.96,4.47,1.56,
35754,1661560814026,-0.7621,0.0849,-0.3329,23.17,-5.75,1.93,
35755,1661560814026,-0.832,-0.0772,0.0275,26.98,-0.93,1.12,
35756,1661560814027,-0.789,0.563,0.5758,29.87,1.1,-5.19,
35757,1661560814027,-0.6479,0.2451,-0.476,31.56,-2.97,-0.35,
35758,1661560814027,-0.6796,-0.0244,-0.6102,27.15,-1.35,-2.09,
35759,1661560814028,-0.8451,0.4009,0.4698,22.57,2.7,-4.54,
35760,1661560814028,-0.9399,0.1655,-0.0609,20.57,-12.69,-9.47,
35761,1661560814029,-0.811,0.2363,-0.6254,30.17,-26.39,-8.56,
35762,1661560814029,-0.769,0.0517,-0.1976,29.56,-3.48,-5.73,
35763,1661560814030,-1.0004,0.2305,0.6896,24.66,2.87,-8.47,
35764,1661560814030,-0.9325,0.1963,-0.4193,23.87,-13.79,-10.02,
35765,1661560814031,-1.0297,-0.4258,-0.0131,26.16,-4.32,-6.01,
35766,1661560814031,-1.0312,0.1416,0.6583,25.56,-5.58,-7.37,
35767,1661560814032,-0.9174,-0.1787,-0.2875,28.77,-10.49,-3.17,
35768,1661560814032,-0.9628,-0.4116,-0.0697,27.06,-10.57,-2.81,
35769,1661560814033,-1.0966,-0.0864,0.5231,22.37,-4.82,-3.9,
35770,1661560814033,-0.9531,-0.2534,0.193,23.56,-14.72,0.11,
35771,1661560814034,-1.0322,-0.3208,-0.4296,22.97,-13.7,2.57,
35772,1661560814034,-1.0751,-0.3325,0.3566,23.87,-11.67,5.66,
35773,1661560814034,-1.3344,-0.3276,0.3414,20.86,-22.76,4.4,
35774,1661560814035,-1.0116,-0.0708,0.0738,19.26,-21.4,7.95,
35775,1661560814035,-1.0917,-0.2905,0.3077,19.26,-11.26,5.76,
35776,1661560814036,-1.165,-0.0117,0.2862,17.17,2.78,1.02,
35777,1661560814036,-1.1396,-0.1045,0.068,14.67,-2.04,5.66,
35778,1661560814037,-1.2387,-0.2017,0.3693,12.16,4.06,2.57,
35779,1661560814037,-1.2221,0.3052,0.4176,18.86,-5.58,3.3,
35780,1661560814038,-1.227,-0.0117,-0.2147,18.97,-8.71,4.95,
35781,1661560814038,-1.1572,0.2114,0.3463,13.17,0.75,-0.17,
35782,1661560814039,-1.1025,0.1328,0.2408,6.87,0.25,-2.45,
35783,1661560814039,-1.2431,0.1055,-0.0639,5.36,-9.99,-2.99,
35784,1661560814040,-1.3105,0.3022,0.3653,11.69,0.58,-2.71,
35785,1661560814040,-1.2148,0.2129,0.6798,11.87,7.53,-6.47,
35786,1661560814040,-1.165,0.227,-0.101,18.27,2.7,-3.72,
35787,1661560814041,-1.1547,0.2309,0.0485,13.48,10.91,-9.29,
35788,1661560814041,-1.1523,0.185,0.7916,10.27,10.99,-2.0,
35789,1661560814042,-1.0986,0.1514,-0.1049,10.17,0.84,-4.0,
35790,1661560814042,-0.9975,0.123,-0.1718,13.48,6.59,0.57,
35791,1661560814043,-1.1406,0.2368,0.5724,11.87,6.67,-0.44,
35792,1661560814043,-1.1098,0.3413,0.4068,11.37,-1.45,-5.55,
35793,1661560814044,-0.8876,-0.0313,-0.5604,11.97,-17.42,-2.81,
35794,1661560814044,-1.1713,0.2095,0.3024,14.18,-1.86,-4.09,
35795,1661560814044,-0.976,0.2407,0.7076,14.87,0.75,2.38,
35796,1661560814045,-0.9789,0.334,-0.2865,12.78,-3.48,-1.26,
35797,1661560814045,-0.9306,0.3017,0.5065,6.87,9.13,-0.35,
35798,1661560814046,-0.9921,0.3501,0.8453,7.07,9.39,1.02,
35799,1661560814046,-0.9384,0.5586,0.1622,10.67,0.34,-4.54,
35800,1661560814047,-0.8178,0.4834,-0.1493,15.06,0.75,-1.9,
35801,1661560814047,-0.978,0.5625,0.4962,14.87,11.42,-5.55,
35802,1661560814048,-0.891,0.562,-0.1288,17.87,5.83,-4.0,
35803,1661560814048,-0.8056,0.4722,-0.3656,14.97,6.5,-5.09,
35804,1661560814049,-0.8173,0.7544,0.1471,17.96,9.8,-5.0,
35805,1661560814049,-0.7826,0.5034,-0.0038,21.26,0.75,-7.37,
35806,1661560814050,-0.7675,0.4814,-0.0941,21.37,2.37,-10.74,
35807,1661560814050,-0.7944,0.5405,0.1241,22.37,2.95,-9.66,
35808,1661560814050,-0.7372,0.3437,0.0021,24.37,8.36,-9.11,
35809,1661560814051,-0.7319,0.2988,-0.1664,28.96,8.88,-7.73,
35810,1661560814051,-0.7255,0.1645,-0.0267,30.17,10.32,-5.28,
35811,1661560814052,-0.7167,0.0068,-0.2587,29.48,-5.67,-11.01,
35812,1661560814052,-0.8754,0.1431,-0.3178,29.16,-7.96,-9.29,
35813,1661560814053,-0.7602,-0.1519,0.0777,27.67,-3.22,-7.64,
35814,1661560814053,-0.7392,0.0615,-0.1898,24.84,-9.4,-3.63,
35815,1661560814054,-0.874,0.1333,-0.2162,20.37,-12.02,-4.18,
35816,1661560814054,-0.769,-0.249,-0.0365,22.07,-23.27,-3.54,
35817,1661560814055,-1.0551,0.0718,0.2452,30.96,-10.49,-3.17,
35818,1661560814055,-0.8515,-0.1436,0.296,27.67,-2.79,0.38,
35819,1661560814055,-1.017,0.1411,-0.0048,22.27,-2.29,-1.54,
35820,1661560814056,-0.7983,0.0254,0.193,19.76,-3.64,-2.55,
35821,1661560814056,-1.0795,-0.1231,0.0172,21.17,-12.52,-2.64,
35822,1661560814057,-0.9443,0.2212,0.0148,30.77,-9.3,-2.99,
35823,1661560814057,-0.9599,-0.0269,0.0216,31.07,-7.44,3.85,
35824,1661560814058,-1.0121,0.0576,0.0987,26.37,-2.12,-2.18,
35825,1661560814058,-0.9399,0.0908,-0.2059,22.59,-12.52,-0.26,
35826,1661560814059,-1.0229,-0.3447,-0.1654,22.97,-13.88,-2.36,
35827,1661560814059,-1.0361,0.1025,0.3307,26.26,-8.37,-0.07,
35828,1661560814060,-1.0942,-0.21,0.1764,20.77,-9.4,-2.55,
35829,1661560814060,-1.0282,-0.0171,-0.0873,20.66,-22.41,-2.71,
35830,1661560814061,-1.1318,-0.2769,0.4117,23.76,-9.56,-0.07,
35831,1661560814061,-1.186,-0.3403,0.6368,24.37,-3.14,-0.53,
35832,1661560814062,-1.1948,-0.0571,0.0436,19.37,-6.85,-0.35,
35833,1661560814062,-1.0571,-0.3164,-0.0189,17.26,2.54,3.48,
35834,1661560814063,-1.2543,-0.1255,0.5299,13.48,-6.34,1.65,
35835,1661560814063,-1.1967,-0.0327,0.129,15.57,-13.12,-3.35,
35836,1661560814063,-1.1576,-0.2837,-0.3192,17.96,-21.24,2.66,
35837,1661560814066,-1.29,0.1616,0.8131,13.86,13.45,0.66,
35838,1661560814066,-1.1811,0.0185,0.7623,9.27,5.83,5.57,
35839,1661560814066,-1.2577,-0.023,-0.1293,7.18,-4.57,-2.45,
35840,1661560814066,-1.1962,0.1211,0.587,6.67,-7.78,0.2,
35841,1661560814066,-1.3403,0.1416,0.6866,12.87,-5.67,-0.62,
35842,1661560814066,-1.2485,0.3198,0.2994,17.47,-4.07,-2.36,
35843,1661560814066,-1.0917,0.1411,0.0568,14.27,11.84,1.28,
35844,1661560814068,-1.1513,0.2598,0.6739,8.47,23.59,-5.0,
35845,1661560814068,-1.0839,0.5674,0.1095,7.45,16.24,-5.0,
35846,1661560814068,-0.9994,0.1689,-0.3861,8.98,2.87,1.28,
35847,1661560814068,-0.9496,0.313,-0.0048,11.48,-0.26,-6.82,
35848,1661560814069,-1.08,0.4722,0.3868,14.67,-7.11,-3.08,
35849,1661560814069,-1.0346,0.3423,-0.1444,18.86,-3.81,-5.83,
35850,1661560814070,-0.9936,0.395,0.0729,13.57,4.73,-3.26,
35851,1661560814070,-1.0644,0.3745,0.4239,9.88,14.12,-9.2,
35852,1661560814071,-0.9902,0.4829,0.2413,11.48,10.49,-8.28,
35853,1661560814071,-0.9252,0.3882,-0.0975,14.47,3.63,-7.73,
35854,1661560814072,-0.9277,0.2095,0.3487,16.16,2.78,-5.19,
35855,1661560814072,-1.04,0.4741,0.2511,15.96,2.44,-2.81,
35856,1661560814073,-0.7675,0.2334,-0.1713,13.26,3.8,-2.71,
35857,1661560814073,-0.9413,0.3247,0.1642,15.26,9.63,-6.56,
35858,1661560814073,-1.0136,0.4141,0.3356,17.17,9.56,-5.0,
35859,1661560814074,-0.7968,0.271,-0.0971,16.38,-7.03,-4.54,
35860,1661560814074,-0.9091,0.3091,0.005,20.47,-4.32,-6.01,
35861,1661560814075,-0.8881,0.2383,0.4557,23.67,-2.12,-2.99,
35862,1661560814075,-0.8017,0.4297,0.0436,22.37,1.94,-0.99,
35863,1661560814076,-0.6884,0.4717,0.0436,20.16,11.75,-5.19,
35864,1661560814076,-0.6113,0.2182,0.0714,20.77,10.49,-3.26,
35865,1661560814076,-0.7865,0.4736,-0.2235,22.39,-5.67,-9.84,
35866,1661560814077,-0.7529,0.1152,-0.1879,30.96,-4.74,-6.73,
35867,1661560814077,-0.7411,0.5,0.2316,29.36,4.73,-8.01,
35868,1661560814078,-0.6391,0.3281,-0.6654,29.67,-3.55,-9.11,
35869,1661560814078,-0.6474,0.0112,-0.8754,24.88,-11.09,-7.18,
35870,1661560814079,-0.7314,0.3213,0.0958,26.14,-1.19,-7.09,
35871,1661560814079,-0.7919,0.2241,0.3009,25.56,-10.66,-6.63,
35872,1661560814080,-0.8696,0.0986,-0.5858,27.06,-17.94,-9.47,
35873,1661560814080,-0.8949,0.1304,0.2027,27.76,-9.47,-9.56,
35874,1661560814081,-1.0605,-0.02,0.7154,27.87,1.51,-9.38,
35875,1661560814081,-0.8803,0.041,-0.5516,27.27,-8.13,-4.91,
35876,1661560814087,-0.9091,-0.1118,-0.5961,26.66,-1.35,-7.18,
35877,1661560814087,-0.9247,-0.2446,0.5812,25.56,-0.35,-3.72,
35878,1661560814087,-1.0546,0.0713,0.0963,27.76,-8.97,-2.18,
35879,1661560814087,-0.9018,-0.4766,-0.5282,29.47,-14.46,-1.26,
35880,1661560814087,-1.1752,-0.271,0.3732,23.36,-17.59,-2.71,
35881,1661560814087,-1.0214,-0.1973,0.402,23.36,-15.32,0.11,
35882,1661560814087,-0.9926,-0.3081,-0.4266,22.27,-22.76,0.38,
35883,1661560814087,-1.0937,-0.2944,0.3243,22.27,-9.99,8.04,
35884,1661560814087,-1.0942,-0.3594,0.63,18.86,-21.15,4.03,
35885,1661560814087,-1.2026,-0.084,0.275,19.37,-20.64,2.57,
35886,1661560814087,-1.0663,-0.1992,0.0851,25.56,-11.17,6.12,
35887,1661560814087,-1.2421,-0.3164,0.1476,19.47,3.04,6.03,
35888,1661560814087,-1.1684,0.1689,0.3819,14.87,3.54,-0.81,
35889,1661560814088,-1.1196,-0.1338,0.0777,12.79,-2.79,4.03,
35890,1661560814088,-1.0595,0.0283,-0.0663,17.26,-13.2,-0.53,
35891,1661560814089,-1.1767,0.1509,0.0631,20.77,-13.53,0.11,
35892,1661560814089,-1.2182,-0.0518,0.4293,15.06,-1.61,-0.53,
35893,1661560814090,-1.1576,0.3603,0.2399,9.37,-3.14,-2.18,
35894,1661560814090,-1.2104,0.0156,-0.0111,6.47,-0.26,-4.45,
35895,1661560814090,-1.2592,0.2095,0.5231,13.57,7.69,-7.09,
35896,1661560814091,-1.249,0.2524,0.6442,16.27,13.87,-5.19,
35897,1661560814091,-1.204,0.0264,0.2731,17.06,8.2,-8.1,
35898,1661560814092,-1.1625,0.1948,0.0318,13.77,6.09,-8.28,
35899,1661560814092,-1.1235,0.0151,0.4801,12.27,12.76,-5.19,
35900,1661560814094,-1.1498,0.1807,0.1144,7.97,3.47,-3.17,
35901,1661560814094,-1.1513,0.3525,-0.1747,9.07,-1.11,-3.26,
35902,1661560814094,-0.9423,-0.0527,-0.0526,13.98,-3.64,-1.36,
35903,1661560814094,-1.1611,0.2324,0.5035,18.27,1.01,-4.09,
35904,1661560814094,-0.9565,0.185,0.1725,10.87,-6.51,-2.18,
35905,1661560814095,-1.1406,0.1938,-0.0502,13.48,-7.03,-3.45,
35906,1661560814095,-1.0195,0.313,0.732,9.48,5.24,-2.0,
35907,1661560814096,-0.9677,0.3755,0.6642,6.37,5.16,-8.01,
35908,1661560814096,-0.9135,0.439,-0.1473,9.46,-0.18,-0.71,
35909,1661560814097,-0.8886,0.3545,0.1534,14.27,3.88,-2.09,
35910,1661560814097,-0.957,0.6059,0.546,17.67,9.56,-6.73,
35911,1661560814098,-0.9042,0.7978,0.1671,15.77,4.14,-7.46,
35912,1661560814098,-0.7748,0.5268,-0.5341,15.37,1.77,-8.92,
35913,1661560814099,-0.8481,0.5044,0.1871,13.07,8.2,-5.83,
35914,1661560814099,-0.8735,0.6211,0.337,16.27,0.92,-7.64,
35915,1661560814100,-0.8735,0.6489,-0.1683,18.38,-2.29,-12.11,
35916,1661560814100,-0.7563,0.5683,-0.1532,25.36,-5.67,-8.1,
35917,1661560814100,-0.831,0.3257,0.3639,25.56,10.15,-8.01,
35918,1661560814101,-0.7992,0.5669,0.3566,26.16,13.78,-4.36,
35919,1661560814101,-0.7743,0.2612,-0.3554,25.06,5.5,-10.92,
35920,1661560814102,-0.6811,0.0532,-0.0072,20.77,8.36,-7.55,
35921,1661560814102,-0.8495,0.3159,0.0485,22.37,3.54,-11.11,
35922,1661560814103,-0.7997,0.2236,-0.2645,32.26,-1.35,-9.11,
35923,1661560814103,-0.7001,-0.0728,-0.6586,33.05,-13.12,-7.37,
35924,1661560814104,-1.0077,0.0122,0.1603,25.87,-8.37,-0.44,
35925,1661560814104,-0.5873,-0.1182,-0.0453,19.76,-22.41,-7.64,
35926,1661560814105,-0.8544,0.0976,-0.3158,25.76,-13.7,-0.35,
35927,1661560814105,-0.7109,-0.1314,0.2794,27.96,-5.51,-0.17,
35928,1661560814105,-1.0424,0.04,0.1022,25.76,-8.13,-0.71,
35929,1661560814106,-0.8398,0.0015,0.1705,24.86,-7.7,-1.26,
35930,1661560814106,-1.0092,0.0952,0.1402,27.87,-12.02,-2.36,
35931,1661560814107,-0.832,0.2974,0.111,26.66,-0.85,0.11,
35932,1661560814107,-0.8578,-0.0142,-0.1825,25.67,-3.72,-2.71,
35933,1661560814108,-0.9281,0.0137,-0.039,23.56,0.25,-4.27,
35934,1661560814108,-1.0077,0.1387,0.1197,28.66,-13.53,-5.92,
35935,1661560814110,-1.0512,-0.0112,-0.1205,26.07,-16.92,-0.62,
35936,1661560814110,-0.9657,0.0112,-0.038,29.47,-16.32,-4.64,
35937,1661560814111,-1.0575,-0.2949,0.2023,23.85,-8.63,-0.07,
35938,1661560814111,-1.1083,0.1484,0.253,22.86,-12.02,-6.63,
35939,1661560814111,-1.0336,-0.0576,0.1964,24.37,-8.8,-0.44,
35940,1661560814111,-1.0683,-0.3555,0.2203,23.27,-8.54,-1.17,
35941,1661560814111,-1.1396,-0.169,0.045,22.07,-4.91,2.84,
35942,1661560814113,-1.0951,-0.3936,0.2071,20.77,1.1,2.02,
35943,1661560814113,-1.1532,-0.0962,0.2472,17.76,-3.31,3.21,
35944,1661560814113,-1.1484,-0.2642,-0.0492,16.57,-11.93,-0.62,
35945,1661560814113,-1.0942,-0.4766,-0.0975,14.58,-25.04,2.57,
35946,1661560814114,-1.2929,-0.0161,0.3868,14.47,-5.41,0.75,
35947,1661560814114,-1.1762,-0.2402,0.2086,14.87,-11.85,6.85,
35948,1661560814115,-1.1801,-0.0381,0.0607,9.77,-9.06,1.83,
35949,1661560814115,-1.2314,0.1221,0.8756,5.88,-4.82,4.49,
35950,1661560814116,-1.2602,-0.063,0.067,10.27,-10.92,-0.99,
35951,1661560814116,-1.1962,0.2607,0.1051,14.77,-5.08,-2.99,
35952,1661560814117,-1.2118,0.104,0.6022,15.37,14.04,-0.53,
35953,1661560814117,-1.287,0.2158,0.8121,13.57,14.88,-2.0,
35954,1661560814117,-1.0405,0.3979,-0.3827,13.77,1.68,-4.73,
35955,1661560814118,-1.0693,0.1597,0.0035,10.36,-1.61,-3.26,
35956,1661560814118,-1.1752,0.5224,0.5621,10.36,-1.35,-3.72,
35957,1661560814119,-1.1073,0.4204,0.2472,13.57,-2.29,-2.9,
35958,1661560814119,-1.081,0.1719,-0.1845,12.97,2.28,-2.71,
35959,1661560814120,-1.1049,0.4668,0.4698,8.78,7.43,-5.64,
35960,1661560814120,-1.1166,0.375,0.3761,10.27,5.5,-6.91,
35961,1661560814122,-0.9594,0.2378,-0.2025,13.26,-1.61,-8.92,
35962,1661560814122,-0.9511,0.2544,-0.0018,15.37,4.73,-8.01,
35963,1661560814122,-1.039,0.3266,0.5636,14.87,10.56,-10.65,
35964,1661560814122,-1.0087,0.4214,-0.08,11.37,5.24,-10.48,
35965,1661560814122,-0.7968,0.1489,-0.285,15.17,4.31,-3.35,
35966,1661560814123,-1.0741,0.4307,0.5275,12.97,5.4,-7.37,
35967,1661560814123,-0.9311,0.3437,-0.0365,16.86,-4.57,-3.17,
35968,1661560814124,-0.6679,0.1899,-0.5424,20.97,-21.48,-2.9,
35969,1661560814124,-0.9003,0.3257,0.211,15.17,11.08,-4.0,
35970,1661560814126,-0.8383,0.436,0.7906,15.26,8.88,-2.71,
35971,1661560814126,-0.9198,0.3452,-0.4071,18.38,3.47,-0.71,
35972,1661560814126,-0.8598,0.2436,0.2755,23.47,6.26,-1.36,
35973,1661560814126,-0.8461,0.5317,0.5934,22.46,9.46,-2.71,
35974,1661560814127,-0.7421,0.6675,0.172,22.97,5.33,-5.55,
35975,1661560814127,-0.5795,0.2124,-0.4306,23.87,6.43,-3.9,
35976,1661560814127,-0.8075,0.4385,0.0079,25.27,6.59,-2.9,
35977,1661560814128,-0.7778,0.3725,-0.2289,27.87,-2.88,-2.27,
35978,1661560814128,-0.7397,0.373,-0.16,24.97,-2.88,-2.64,
35979,1661560814129,-0.745,0.5278,-0.1029,25.06,-4.74,-2.45,
35980,1661560814129,-0.6327,0.1123,-0.5443,25.06,-12.19,-0.99,
35981,1661560814130,-0.7953,0.3169,-0.0302,26.97,-3.14,-4.18,
35982,1661560814130,-0.8349,0.2461,0.2457,31.67,-2.62,-3.08,
35983,1661560814131,-0.851,-0.0767,-0.2992,29.27,-11.5,-4.64,
35984,1661560814131,-0.8813,0.1211,0.0226,26.77,-11.26,-7.83,
35985,1661560814132,-0.9526,-0.1367,0.4933,28.06,1.85,-3.81,
35986,1661560814132,-0.8857,-0.0982,-0.3715,27.96,-10.33,-9.56,
35987,1661560814133,-0.9335,-0.1519,-0.0668,25.76,-5.58,-5.28,
35988,1661560814133,-0.9042,-0.313,0.3409,28.46,-12.77,-5.28,
35989,1661560814134,-0.9999,-0.0576,0.1178,26.46,-19.38,-2.64,
35990,1661560814134,-0.9594,-0.3486,-0.2938,27.76,-18.61,-4.45,
35991,1661560814135,-1.1645,-0.312,0.3194,22.46,-12.95,0.11,
35992,1661560814135,-1.0668,-0.0884,0.5851,22.46,-7.11,-2.71,
35993,1661560814136,-1.0248,-0.3242,-0.2924,23.17,-15.91,2.38,
35994,1661560814136,-1.0429,-0.0059,0.1227,23.98,-8.71,-0.53,
35995,1661560814137,-1.2109,-0.3184,0.6671,24.27,-8.97,4.4,
35996,1661560814137,-1.0595,0.1006,0.1783,20.16,-7.61,-0.35,
35997,1661560814137,-1.0771,0.0757,-0.1532,21.87,-7.53,2.75,
35998,1661560814138,-1.1606,-0.3037,-0.1303,16.86,-7.11,1.56,
35999,1661560814138,-1.1874,0.1304,0.4274,16.57,-5.75,1.56,
36000,1661560814139,-1.0717,-0.0908,-0.0106,17.37,-12.6,0.38,
36001,1661560814139,-1.1205,0.1518,-0.0673,15.89,-8.71,0.29,
36002,1661560814140,-1.2372,0.0742,0.5597,15.37,-6.85,0.29,
36003,1661560814140,-1.2812,-0.0376,0.6735,12.16,-1.11,-3.81,
36004,1661560814141,-1.1611,0.1738,0.2008,11.77,-1.52,-5.64,
36005,1661560814141,-1.1694,-0.0708,0.0284,12.96,4.99,-2.81,
36006,1661560814142,-1.2665,0.1572,0.6676,13.87,9.39,-5.55,
36007,1661560814142,-1.2133,0.1728,0.2848,14.88,8.79,-7.18,
36008,1661560814142,-1.1415,-0.1177,-0.0951,15.57,-0.85,-1.9,
36009,1661560814143,-1.2309,0.1186,0.1539,14.27,7.77,-4.0,
36010,1661560814143,-1.1874,0.1821,0.5245,11.97,7.6,0.75,
36011,1661560814144,-1.0395,-0.0,-0.2069,9.27,-3.72,-1.81,
36012,1661560814144,-1.1298,0.2065,0.1485,11.05,-2.21,-2.18,
36013,1661560814145,-0.9765,0.1128,0.485,10.78,-10.83,0.11,
36014,1661560814145,-1.2182,0.3017,0.4591,12.58,-7.96,0.75,
36015,1661560814145,-1.0287,0.2173,0.3336,14.97,0.42,-0.71,
36016,1661560814146,-1.2084,0.2148,0.149,16.97,1.18,4.03,
36017,1661560814146,-1.0248,0.458,0.4078,11.87,12.18,2.57,
36018,1661560814147,-0.997,0.3916,0.4874,9.77,12.59,-2.81,
36019,1661560814147,-0.9799,0.416,0.1603,9.27,13.78,-1.81,
36020,1661560814149,-0.8959,0.5649,-0.1825,14.16,-2.71,-2.0,
36021,1661560814149,-0.998,0.4995,0.0924,16.77,2.03,-3.26,
36022,1661560814149,-0.9521,0.75,0.1241,15.48,1.94,-2.99,
36023,1661560814149,-0.8578,0.582,-0.1395,13.68,1.44,-7.83,
36024,1661560814150,-0.8984,0.4858,-0.0888,12.58,6.84,-6.82,
36025,1661560814150,-0.915,0.6479,0.2345,17.4,5.74,-8.37,
36026,1661560814151,-0.8344,0.5034,0.0016,23.29,9.8,-6.19,
36027,1661560814151,-0.8198,0.3652,-0.1342,29.06,7.77,-8.74,
36028,1661560814151,-0.8813,0.2641,0.1012,27.76,13.78,-6.82,
36029,1661560814152,-0.8324,0.2817,0.3058,26.07,11.84,-5.73,
36030,1661560814152,-0.7983,0.3266,-0.2914,22.86,6.17,-8.74,
36031,1661560814153,-0.5864,0.0268,-0.2704,22.74,0.66,-3.63,
36032,1661560814153,-0.811,0.2095,0.1881,21.06,1.85,-7.18,
36033,1661560814154,-0.727,-0.0503,-0.392,29.96,-11.93,-5.55,
36034,1661560814154,-0.7558,-0.19,-0.7113,30.26,-22.24,-5.83,
36035,1661560814156,-0.9784,0.1733,0.4567,26.07,0.51,-2.55,
36036,1661560814156,-0.6591,0.1142,0.5157,20.97,-8.04,-5.19,
36037,1661560814156,-0.7382,0.0351,-0.6898,23.27,-14.29,-4.18,
36038,1661560814156,-0.7426,0.0581,0.2086,28.86,-1.52,-3.63,
36039,1661560814156,-1.0146,0.0513,0.4108,28.96,2.95,-6.28,
36040,1661560814157,-0.8144,0.2617,-0.3368,26.66,-8.13,-5.83,
36041,1661560814157,-0.8158,0.146,-0.3402,25.27,-13.88,-6.73,
36042,1661560814158,-0.8031,0.2163,0.1637,28.06,-4.82,-8.19,
36043,1661560814158,-0.8656,0.1367,-0.3085,30.08,-8.21,-7.18,
36044,1661560814159,-0.9438,-0.1343,-0.205,25.36,-6.34,-4.36,
36045,1661560814159,-0.9555,0.2261,0.38,25.47,-12.36,-7.46,
36046,1661560814160,-0.9736,-0.0991,-0.1757,28.57,-21.48,-3.9,
36047,1661560814160,-0.9506,-0.0098,-0.0194,34.17,-13.29,-5.19,
36048,1661560814161,-1.0956,-0.186,0.5987,22.77,-0.59,-7.83,
36049,1661560814161,-1.0761,-0.2202,0.0792,18.57,-4.15,-5.37,
36050,1661560814162,-1.0761,-0.2012,-0.226,23.17,-8.21,-0.99,
36051,1661560814162,-1.0365,-0.3477,0.2306,25.58,-3.14,-0.71,
36052,1661560814163,-1.184,-0.2378,0.3028,24.16,-18.11,-0.44,
36053,1661560814163,-1.1113,-0.3071,-0.203,20.37,-16.66,2.93,
36054,1661560814163,-1.0292,-0.3594,0.1593,21.47,-5.0,-0.17,
36055,1661560814164,-1.2216,-0.0889,0.3575,15.55,-6.68,0.11,
36056,1661560814164,-1.1889,-0.4126,-0.0121,12.27,-19.45,-1.08,
36057,1661560814165,-1.2568,0.0058,0.5558,11.97,-16.66,1.12,
36058,1661560814165,-1.1352,-0.0913,0.4523,16.48,-17.18,1.02,
36059,1661560814166,-1.2055,-0.0156,0.2682,15.48,2.03,0.66,
36060,1661560814166,-1.1884,0.1919,0.4791,12.07,13.61,2.02,
36061,1661560814168,-1.2558,-0.1152,0.2589,10.97,9.22,2.66,
36062,1661560814168,-1.1977,0.3657,0.3151,9.07,4.9,-1.72,
36063,1661560814168,-1.2563,0.4336,0.504,13.17,0.84,-5.73,
36064,1661560814168,-1.1772,0.1577,0.1446,17.26,-7.28,-2.81,
36065,1661560814168,-1.0868,0.3452,-0.288,17.26,-4.07,-7.46,
36066,1661560814169,-1.1152,0.2793,0.3766,11.68,10.99,-3.9,
36067,1661560814169,-1.1357,0.4048,0.338,11.17,2.7,-4.0,
36068,1661560814170,-1.0605,0.2558,-0.1054,11.26,-6.18,-3.26,
36069,1661560814170,-1.1039,0.2422,0.1305,14.45,-3.22,-1.72,
36070,1661560814171,-1.0707,0.333,0.3981,19.67,2.03,0.02,
36071,1661560814171,-1.0087,0.2339,0.3131,16.27,16.15,-1.45,
36072,1661560814172,-1.058,0.1465,0.0924,16.57,16.15,-3.45,
36073,1661560814172,-1.0966,0.2715,0.1959,9.57,10.99,-3.26,
36074,1661560814174,-0.9648,0.2187,0.3566,6.98,3.97,-1.63,
36075,1661560814174,-1.0361,0.31,0.1774,10.78,-0.18,-3.45,
36076,1661560814174,-0.8984,0.1929,-0.2103,20.27,-6.44,1.56,
36077,1661560814175,-1.0214,0.3359,0.2399,18.38,-3.55,-3.08,
36078,1661560814175,-1.0365,0.4106,0.5074,17.06,13.61,-0.26,
36079,1661560814175,-0.7133,0.3061,0.0016,12.07,0.25,-2.55,
36080,1661560814175,-0.8793,0.4072,-0.1483,13.37,-0.35,-5.09,
36081,1661560814176,-0.8964,0.4673,0.8175,17.26,1.1,-6.63,
36082,1661560814176,-0.9955,0.4331,-0.1366,25.96,-1.95,-4.45,
36083,1661560814177,-0.808,0.4136,-0.2382,25.36,7.27,-5.64,
36084,1661560814177,-0.7958,0.3935,0.2716,22.66,17.5,-2.45,
36085,1661560814178,-0.7958,0.6938,0.4659,22.46,11.58,-4.09,
36086,1661560814178,-0.5888,0.4057,-0.7518,23.06,-4.07,-6.73,
36087,1661560814179,-0.7363,0.3223,-0.4115,25.67,-2.97,-5.37,
36088,1661560814179,-0.8393,0.4985,0.3082,25.17,3.13,-6.19,
36089,1661560814179,-0.7729,0.248,-0.2011,24.77,-4.07,-3.08,
36090,1661560814182,-0.6674,0.374,-0.3695,27.16,-5.25,-13.03,
36091,1661560814182,-0.7397,0.251,-0.1649,31.16,-8.37,-7.28,
36092,1661560814182,-0.8027,0.2109,0.2374,32.26,2.03,-9.66,
36093,1661560814182,-0.8012,0.1572,-0.1161,29.87,0.51,-8.47,
36094,1661560814182,-0.7358,-0.2031,-0.1918,27.26,6.09,-7.18,
36095,1661560814182,-0.8818,0.1367,0.2364,23.96,-6.1,-12.75,
36096,1661560814183,-0.9037,-0.065,0.1349,25.07,-9.64,-10.83,
36097,1661560814183,-0.8481,-0.2656,-0.3964,33.47,-18.28,-6.1,
36098,1661560814184,-0.9438,-0.127,-0.2514,27.87,-2.62,-2.81,
36099,1661560814184,-0.9076,-0.1997,0.2399,25.97,-12.77,-0.81,
36100,1661560814184,-0.8481,-0.1069,0.0358,23.76,-17.09,-0.26,
36101,1661560814186,-0.9936,-0.2285,0.0226,27.27,-23.27,4.85,
36102,1661560814186,-1.1117,-0.3013,0.0631,26.46,-15.39,5.85,
36103,1661560814187,-1.0444,0.081,0.4132,20.66,-5.41,3.57,
36104,1661560814187,-1.016,-0.2832,0.1031,21.76,-3.05,5.3,
36105,1661560814187,-1.0453,0.0547,-0.1351,25.76,-9.64,2.02,
36106,1661560814188,-1.0556,-0.0493,0.0753,26.26,-7.03,1.65,
36107,1661560814189,-1.1415,-0.1489,0.4884,23.56,-6.94,1.56,
36108,1661560814189,-1.0776,0.1597,-0.1581,21.96,-17.01,0.66,
36109,1661560814189,-1.0575,-0.2984,-0.1854,20.83,-16.43,2.93,
36110,1661560814189,-1.1572,0.1079,0.6183,17.06,-7.7,0.57,
36111,1661560814190,-1.0776,-0.0029,0.0651,19.06,-14.39,2.02,
36112,1661560814190,-1.1767,-0.1279,-0.1586,19.37,-10.33,-1.17,
36113,1661560814191,-1.1899,0.1333,0.3844,15.48,-2.62,3.39,
36114,1661560814191,-1.2831,-0.1543,0.6695,17.17,1.35,3.85,
36115,1661560814192,-1.2035,0.0527,0.0817,15.37,-0.09,-0.9,
36116,1661560814192,-1.183,-0.0606,0.0475,15.28,0.84,0.93,
36117,1661560814192,-1.1767,-0.0567,0.5055,11.57,3.04,-1.36,
36118,1661560814193,-1.3031,0.1846,0.4762,11.68,3.71,-4.09,
36119,1661560814193,-1.1918,0.0015,0.0089,17.96,3.71,1.02,
36120,1661560814194,-1.2045,-0.082,-0.0599,15.06,-4.65,-2.81,
36121,1661560814194,-1.2392,0.2114,0.6168,10.97,3.97,-1.9,
36122,1661560814195,-1.0927,-0.0586,0.0533,7.27,-10.24,-0.26,
36123,1661560814195,-1.1698,0.1333,-0.0858,13.48,-3.81,-1.45,
36124,1661560814195,-1.017,0.2456,0.5035,14.67,4.81,-1.54,
36125,1661560814196,-1.2626,0.2588,0.5016,15.37,9.39,2.11,
36126,1661560814196,-1.0629,0.3286,0.1051,13.17,6.67,1.83,
36127,1661560814197,-1.1464,0.0762,0.172,11.97,-0.68,-1.45,
36128,1661560814197,-1.0453,0.3179,0.4845,9.77,4.31,-0.71,
36129,1661560814198,-1.0185,0.6821,0.275,12.36,-2.21,-0.44,
36130,1661560814198,-0.9291,0.2558,-0.3544,14.67,-1.52,3.76,
36131,1661560814199,-1.0014,0.5517,0.0758,16.57,-2.04,-0.81,
36132,1661560814199,-1.0551,0.5532,0.3507,13.37,5.5,-1.17,
36133,1661560814199,-1.0038,0.6206,0.1905,14.76,3.54,-5.83,
36134,1661560814200,-0.8964,0.5078,-0.1908,15.57,-6.1,-5.0,
36135,1661560814200,-0.9716,0.4453,0.3038,14.87,-1.78,-7.37,
36136,1661560814201,-0.8881,0.5879,0.1969,19.67,3.71,-7.83,
36137,1661560814202,-0.7568,0.2783,-0.1459,22.86,10.99,-5.46,
36138,1661560814202,-0.766,0.291,-0.0512,22.97,18.1,-3.9,
36139,1661560814202,-0.9584,0.4184,0.2027,20.77,12.52,-2.09,
36140,1661560814204,-0.7402,0.2139,-0.1205,25.47,-1.02,-2.81,
36141,1661560814204,-0.7822,0.2519,-0.182,26.26,-1.02,-5.64,
36142,1661560814205,-0.664,0.1162,-0.0267,24.66,2.87,-2.9,
36143,1661560814205,-0.7323,0.1333,-0.1547,22.56,0.08,0.02,
36144,1661560814205,-0.8891,0.021,-0.0321,25.36,1.44,-4.91,
36145,1661560814205,-0.7631,-0.1074,-0.0917,26.97,-15.82,-0.81,
36146,1661560814206,-0.8466,0.2485,0.2399,25.56,-8.13,-2.09,
36147,1661560814206,-0.768,0.2734,0.3839,27.27,-4.57,2.02,
36148,1661560814207,-0.7685,0.0332,-0.535,26.86,-2.45,-4.91,
36149,1661560814207,-0.8495,0.2168,-0.0648,26.37,2.03,-6.01,
36150,1661560814207,-1.0263,0.1206,0.569,22.46,-1.45,-3.08,
36151,1661560814208,-0.8437,0.3369,0.2218,27.76,-13.96,-10.21,
36152,1661560814208,-0.7739,0.2168,-0.8119,34.26,-13.2,-0.26,
36153,1661560814209,-0.8852,0.0884,0.025,25.47,5.66,-2.99,
36154,1661560814209,-0.9018,0.248,0.1959,23.06,-5.58,-7.37,
36155,1661560814210,-0.9218,-0.1753,-0.4652,24.57,-17.51,-6.82,
36156,1661560814210,-0.936,0.2051,0.2242,33.34,-15.39,-6.01,
36157,1661560814211,-1.0175,-0.0855,0.3268,32.26,-10.16,-5.0,
36158,1661560814211,-0.9452,-0.2446,-0.1234,27.06,-11.5,-4.18,
36159,1661560814212,-1.0654,-0.2129,0.2286,20.47,-10.66,-5.83,
36160,1661560814212,-1.0785,-0.3252,0.4464,25.36,-1.52,-1.36,
36161,1661560814213,-1.0507,-0.1817,0.0275,27.16,-11.09,-1.45,
36162,1661560814213,-1.0361,-0.3052,-0.1224,24.97,-7.28,1.74,
36163,1661560814213,-1.1987,-0.3648,0.3668,21.87,-17.77,0.11,
36164,1661560814214,-1.2304,-0.2007,0.1852,19.06,-23.01,0.38,
36165,1661560814214,-0.9345,-0.4053,-0.078,19.47,-26.14,-2.81,
36166,1661560814215,-1.1342,0.0161,0.4552,17.76,-4.32,-5.55,
36167,1661560814215,-1.1005,-0.2422,0.256,14.45,-5.41,-0.71,
36168,1661560814216,-1.3364,-0.273,0.0494,16.27,-3.98,-2.71,
36169,1661560814216,-1.225,0.0766,0.484,17.28,-5.75,0.2,
36170,1661560814217,-1.2363,-0.0244,0.4186,15.48,-7.03,-0.62,
36171,1661560814217,-1.1357,0.2524,0.3863,13.77,0.58,-2.81,
36172,1661560814217,-1.0795,0.0449,0.1378,13.97,7.6,2.57,
36173,1661560814218,-1.2026,-0.0132,-0.0321,12.87,4.9,2.66,
36174,1661560814219,-1.2016,0.4126,0.2101,14.07,7.36,3.02,
36175,1661560814219,-1.1742,0.2363,0.3805,15.67,0.92,0.48,
36176,1661560814219,-1.1103,0.2734,-0.0902,14.67,-0.01,-2.64,
36177,1661560814222,-1.1152,0.2646,0.2203,14.96,1.44,-0.07,
36178,1661560814222,-1.2226,0.2851,0.5187,12.78,7.02,-1.54,
36179,1661560814222,-1.1337,0.2988,0.1984,13.17,0.92,-5.0,
36180,1661560814222,-1.0292,0.165,0.0753,13.26,6.59,-2.81,
36181,1661560814222,-1.1015,0.1899,0.4435,14.88,7.95,-0.62,
36182,1661560814222,-1.0453,0.2383,0.2145,12.27,7.95,-3.9,
36183,1661560814222,-0.9252,0.1167,-0.0189,17.17,-1.86,-4.18,
36184,1661560814223,-1.1215,0.2065,0.1129,14.67,-1.28,-2.36,
36185,1661560814223,-1.0278,0.2143,0.2711,11.87,-0.09,-2.71,
36186,1661560814224,-0.9921,0.2187,-0.0902,9.07,-4.07,-2.09,
36187,1661560814224,-1.0273,0.2475,0.1969,12.67,0.84,2.11,
36188,1661560814225,-0.8974,0.2197,0.3273,14.87,-1.95,5.11,
36189,1661560814225,-1.0644,0.5151,0.3165,19.06,-1.69,-2.18,
36190,1661560814226,-0.8085,0.3286,0.1329,17.06,-7.37,1.02,
36191,1661560814226,-0.9355,0.4878,0.1803,15.26,1.85,-0.9,
36192,1661560814226,-0.8696,0.5137,0.2023,15.57,8.29,2.11,
36193,1661560814227,-0.8783,0.3369,0.0362,17.67,8.46,-3.26,
36194,1661560814228,-0.872,0.5849,0.1525,19.06,16.24,-4.91,
36195,1661560814228,-0.7441,0.6265,-0.0497,24.46,7.19,-6.73,
36196,1661560814228,-0.6855,0.4678,-0.2987,24.07,1.44,-7.0,
36197,1661560814229,-0.6635,0.581,-0.1532,24.46,2.54,-5.09,
36198,1661560814229,-0.7294,0.312,-0.1776,22.07,-5.67,-4.73,
36199,1661560814230,-0.7909,0.4692,-0.1386,26.77,-1.02,-7.28,
36200,1661560814230,-0.7524,0.397,-0.0258,32.26,-4.15,-8.47,
36201,1661560814231,-0.7841,0.1684,-0.0824,31.56,-2.97,-7.37,
36202,1661560814231,-0.7328,0.2246,-0.1898,34.37,-1.69,-10.83,
36203,1661560814232,-0.7988,-0.0689,0.0543,27.77,5.92,-6.47,
36204,1661560814232,-0.7485,0.063,0.0348,25.76,0.42,-10.74,
36205,1661560814232,-0.8373,0.1553,-0.1298,26.07,-7.53,-10.65,
36206,1661560814234,-0.728,-0.2129,-0.1552,28.46,-15.48,-9.56,
36207,1661560814234,-1.0112,0.0107,0.0651,31.27,-8.47,-6.01,
36208,1661560814234,-0.8837,-0.2046,0.0616,28.77,-7.44,-2.99,
36209,1661560814234,-0.9091,-0.1763,-0.12,23.06,-15.65,-2.9,
36210,1661560814235,-0.9452,-0.0078,0.3336,23.67,-12.19,-4.36,
36211,1661560814235,-0.8984,-0.1616,0.0782,25.47,-15.32,-3.17,
36212,1661560814236,-0.9789,-0.0064,-0.1766,26.97,-12.52,3.39,
36213,1661560814237,-1.0351,-0.2583,0.3307,24.97,-12.43,7.31,
36214,1661560814238,-1.1293,-0.1768,0.5192,25.47,-8.04,4.67,
36215,1661560814238,-1.0136,0.1006,0.1012,26.46,-14.39,6.3,
36216,1661560814238,-1.0453,-0.1817,-0.3485,27.27,-8.04,3.85,
36217,1661560814238,-1.0112,0.06,0.256,23.47,-7.61,4.4,
36218,1661560814239,-1.0453,-0.1089,0.1798,22.48,-12.69,4.21,
36219,1661560814239,-0.9755,0.0034,-0.1908,21.37,-18.87,0.11,
36220,1661560814240,-1.06,-0.0181,-0.1205,23.67,-19.88,1.19,
36221,1661560814240,-1.2192,-0.188,0.4488,18.07,-13.36,-0.07,
36222,1661560814241,-1.1933,0.0332,0.2989,16.77,-10.92,-3.35,
36223,1661560814241,-1.1449,-0.2022,0.1329,19.06,-1.52,-4.36,
36224,1661560814242,-1.1874,-0.082,0.4396,20.97,-2.55,-9.11,
36225,1661560814242,-1.2265,-0.1382,0.233,14.07,-5.51,-6.73,
36226,1661560814242,-1.1503,-0.1118,0.1446,12.97,-7.11,-4.45,
36227,1661560814243,-1.2924,0.0483,0.3004,9.97,7.19,-4.91,
36228,1661560814243,-1.2265,-0.1055,0.2345,13.17,7.95,0.38,
36229,1661560814244,-1.2416,-0.0195,0.067,11.77,-1.69,-1.9,
36230,1661560814244,-1.2148,0.0625,0.3956,12.58,-1.52,-1.72,
36231,1661560814245,-1.1713,-0.0742,0.086,12.97,-17.25,-1.9,
36232,1661560814245,-1.2319,0.2456,0.4132,14.27,1.61,1.02,
36233,1661560814245,-1.121,0.0903,0.5875,14.16,2.44,-0.71,
36234,1661560814246,-1.2343,0.1597,0.3229,12.58,8.29,-1.81,
36235,1661560814246,-1.0663,0.3662,0.2662,10.09,2.7,-2.09,
36236,1661560814247,-1.162,0.126,0.3614,11.26,1.27,0.11,
36237,1661560814247,-1.0756,0.5669,0.4449,13.75,5.66,-6.19,
36238,1661560814248,-1.0971,0.437,0.1427,20.37,-1.86,-3.45,
36239,1661560814248,-0.9926,0.1963,-0.1664,17.06,10.15,-5.73,
36240,1661560814249,-1.0409,0.6509,0.3507,13.77,7.43,-1.36,
36241,1661560814249,-0.9897,0.3525,0.0441,8.17,-2.79,-4.45,
36242,1661560814250,-0.9223,0.4766,-0.1825,11.97,-8.8,-4.45,
36243,1661560814250,-0.9828,0.4897,0.0807,18.86,-0.76,-2.0,
36244,1661560814250,-1.0571,0.5474,0.4913,19.57,4.31,-8.92,
36245,1661560814251,-0.8871,0.4614,-0.1322,17.96,4.47,-5.64,
36246,1661560814252,-0.8578,0.1894,0.109,14.87,17.5,-4.45,
36247,1661560814252,-0.9145,0.4766,0.443,13.77,20.3,-7.0,
36248,1661560814252,-0.872,0.3652,-0.1703,16.07,6.93,-2.9,
36249,1661560814254,-0.684,0.2051,-0.3475,21.56,-4.48,-2.09,
36250,1661560814254,-0.9345,0.3794,0.233,23.17,7.77,-5.46,
36251,1661560814255,-0.8569,0.2236,0.1232,23.47,1.51,3.66,
36252,1661560814255,-0.8329,0.1792,-0.3969,23.17,-3.31,-1.9,
36253,1661560814255,-0.7719,0.2554,0.4044,21.56,2.87,-2.18,
36254,1661560814256,-0.621,0.1728,0.4215,21.67,-3.14,-2.09,
36255,1661560814256,-0.8241,0.2969,-0.2846,28.26,-6.18,-5.92,
36256,1661560814256,-0.7748,-0.02,-0.0995,29.16,-7.78,-2.0,
36257,1661560814257,-0.8896,0.2598,0.5851,24.57,4.14,-4.0,
36258,1661560814257,-0.8266,0.4941,-0.0878,26.86,2.03,-5.55,
36259,1661560814258,-0.7714,-0.0484,-0.6283,25.67,-3.22,-4.73,
36260,1661560814258,-0.6288,0.125,-0.2826,28.26,-7.03,-11.75,
36261,1661560814258,-0.7758,0.3325,0.2662,31.16,-7.11,-6.82,
36262,1661560814259,-0.8598,0.1387,-0.3407,32.86,-12.26,-4.91,
36263,1661560814259,-0.8368,0.2622,-0.5375,27.87,-12.52,-1.54,
36264,1661560814260,-0.9062,0.1016,0.255,23.36,-13.88,-2.0,
36265,1661560814260,-0.8871,0.2724,-0.0507,27.29,-14.46,-0.99,
36266,1661560814261,-0.9052,-0.2002,-0.2992,33.56,-7.44,-3.9,
36267,1661560814261,-0.9262,-0.0195,0.5001,27.76,-0.93,-2.64,
36268,1661560814262,-1.018,-0.0703,0.1612,23.67,-10.92,-9.29,
36269,1661560814263,-0.9736,-0.3945,-0.1098,27.18,-14.29,-2.18,
36270,1661560814263,-1.0444,-0.2847,0.0055,27.36,-7.37,-3.17,
36271,1661560814263,-1.1108,-0.1519,0.4454,23.06,-2.88,-0.71,
36272,1661560814263,-1.0102,-0.3252,-0.0355,21.17,-16.42,-4.54,
36273,1661560814264,-1.0727,-0.2988,-0.0858,26.97,-17.85,-2.64,
36274,1661560814264,-1.1659,-0.4854,0.3375,23.17,-18.61,-2.0,
36275,1661560814265,-1.1689,-0.0425,0.486,19.06,-4.41,0.11,
36276,1661560814266,-0.9462,-0.3233,0.0651,15.17,-15.56,2.2,
36277,1661560814266,-1.141,-0.106,0.0675,14.58,-16.66,2.47,
36278,1661560814266,-1.1078,-0.0952,0.3634,20.66,-13.62,-0.17,
36279,1661560814267,-1.2304,-0.2476,0.3439,18.67,-0.18,1.56,
36280,1661560814267,-1.1171,0.1807,0.2926,14.36,-1.35,-3.45,
36281,1661560814268,-1.1781,0.0752,0.1158,13.57,-4.41,0.57,
36282,1661560814268,-1.0824,0.0747,0.2403,12.67,1.68,-7.92,
36283,1661560814269,-1.1117,0.2392,0.2125,13.37,1.01,-3.26,
36284,1661560814269,-1.1474,0.0737,0.0382,13.17,-6.68,-5.73,
36285,1661560814269,-1.2245,0.2622,0.2184,12.27,-6.68,-8.56,
36286,1661560814271,-1.1469,0.3144,0.6022,14.58,2.28,-1.36,
36287,1661560814271,-1.2021,0.1792,0.152,16.07,1.35,-5.55,
36288,1661560814272,-1.1283,0.2388,0.1695,14.47,7.86,-2.64,
36289,1661560814272,-1.1581,0.2217,0.5597,11.97,15.72,-7.46,
36290,1661560814272,-1.1474,0.1133,0.4347,10.97,7.95,-5.19,
36291,1661560814272,-1.0732,0.1479,-0.2416,16.07,3.21,-4.91,
36292,1661560814273,-1.0854,0.1206,0.3214,16.86,-1.19,-2.36,
36293,1661560814273,-1.1757,0.331,0.4274,13.07,2.54,-0.17,
36294,1661560814273,-1.0019,0.1631,-0.0072,15.37,-6.6,3.85,
36295,1661560814276,-1.0829,0.0366,-0.1835,7.97,-3.22,0.11,
36296,1661560814276,-1.0986,0.2475,0.6124,7.18,-4.74,-2.99,
36297,1661560814276,-1.0156,0.3271,0.0504,12.27,-14.13,-3.72,
36298,1661560814276,-0.9628,0.2427,0.0978,15.87,0.34,-1.9,
36299,1661560814276,-0.9384,0.2099,0.4274,17.26,11.16,-1.08,
36300,1661560814276,-1.1283,0.5454,0.4601,12.16,8.29,-3.08,
36301,1661560814277,-0.8559,0.4477,-0.1815,10.47,3.3,-4.64,
36302,1661560814277,-0.9706,0.3906,0.2623,11.77,10.49,-6.1,
36303,1661560814278,-0.9321,0.6997,0.3058,17.37,5.24,-8.56,
36304,1661560814278,-0.8305,0.5146,-0.1849,22.16,-3.55,-5.83,
36305,1661560814278,-0.8246,0.5127,-0.2973,25.67,7.53,-9.11,
36306,1661560814279,-0.8613,0.6836,0.3068,21.18,4.31,-6.73,
36307,1661560814279,-0.7675,0.3877,-0.247,20.16,-1.11,-5.09,
36308,1661560814280,-0.7436,0.5806,-0.1307,21.96,-1.19,-5.46,
36309,1661560814280,-0.7885,0.2558,0.2306,26.46,2.03,-6.28,
36310,1661560814281,-0.8115,0.3066,0.1359,31.67,0.58,-5.46,
36311,1661560814281,-0.7612,0.3437,-0.2479,32.06,-1.78,-8.65,
36312,1661560814282,-0.7265,-0.0767,0.1095,29.96,6.26,-3.81,
36313,1661560814282,-0.7851,0.1445,-0.0736,25.87,-3.22,-7.64,
36314,1661560814283,-0.8261,0.0454,-0.2167,26.57,-4.74,-6.63,
36315,1661560814283,-0.6083,-0.064,-0.0092,25.06,-6.1,-3.35,
36316,1661560814284,-0.8573,0.0996,-0.1019,28.17,1.51,-2.45,
36317,1661560814284,-0.6703,-0.1953,-0.3119,27.06,-14.72,-0.26,
36318,1661560814284,-0.9599,-0.0982,-0.1942,28.2,-24.79,-5.0,
36319,1661560814285,-0.9653,-0.0366,0.4527,25.76,-13.79,-5.09,
36320,1661560814286,-0.8925,-0.1533,-0.16,27.76,-10.07,-5.83,
36321,1661560814286,-0.8705,0.1064,0.0358,22.46,-1.35,-2.18,
36322,1661560814286,-0.9667,-0.1231,0.3819,22.27,-5.08,-4.91,
36323,1661560814287,-0.9535,0.145,-0.0736,24.97,-15.91,-5.55,
36324,1661560814288,-0.9828,-0.1509,0.1207,33.36,-10.33,-1.17,
36325,1661560814289,-0.9994,0.1333,0.4879,25.36,3.97,-4.82,
36326,1661560814289,-0.999,0.248,0.1129,23.87,-11.93,-2.18,
36327,1661560814289,-0.9472,-0.2686,-0.5272,21.37,-14.13,-2.0,
36328,1661560814289,-1.0419,0.0137,0.3976,21.88,-11.17,-0.81,
36329,1661560814290,-1.0878,-0.0767,0.3028,21.87,-10.24,0.66,
36330,1661560814290,-1.0693,-0.0596,-0.1835,25.97,-18.7,-0.71,
36331,1661560814291,-1.1259,-0.0845,0.316,21.76,-17.01,-0.26,
36332,1661560814291,-1.1821,-0.2188,0.6334,20.86,-8.54,-3.72,
36333,1661560814292,-1.1513,-0.1045,-0.0394,17.76,-8.8,0.02,
36334,1661560814292,-1.0654,-0.2988,0.2516,16.86,8.12,2.93,
36335,1661560814292,-1.1293,-0.2007,0.4337,11.77,3.71,-1.81,
36336,1661560814293,-1.245,0.0254,0.2506,12.87,-6.27,2.38,
36337,1661560814293,-1.1044,-0.355,-0.205,15.37,-21.66,0.02,
36338,1661560814294,-1.3051,0.0391,0.4171,16.67,-2.29,1.02,
36339,1661560814295,-1.1235,-0.0923,0.3463,14.27,-3.72,4.67,
36340,1661560814295,-1.2397,0.0508,0.0182,9.27,-5.0,5.39,
36341,1661560814295,-1.2114,0.1655,0.4269,8.56,7.36,5.48,
36342,1661560814296,-1.1674,-0.0073,0.5333,9.97,-2.21,2.75,
36343,1661560814296,-1.1952,0.3076,0.2379,13.17,1.35,-1.63,
36344,1661560814297,-1.1279,0.0508,0.2853,15.37,-0.76,2.47,
36345,1661560814297,-1.1835,0.0283,0.4205,13.87,9.3,-0.44,
36346,1661560814298,-1.1083,0.5542,0.5221,9.77,12.52,0.38,
36347,1661560814298,-1.0292,0.2212,-0.1185,10.67,9.3,-2.71,
36348,1661560814298,-1.0107,0.4248,0.088,10.07,7.02,-4.09,
36349,1661560814299,-1.1562,0.4985,0.3126,12.58,-0.01,1.56,
36350,1661560814299,-1.082,0.2817,0.1236,14.09,-13.36,-1.54,
36351,1661560814300,-0.9775,0.4678,-0.0971,14.58,-6.1,-2.0,
36352,1661560814300,-0.935,0.3906,0.296,11.87,10.15,-1.45,
36353,1661560814301,-0.9448,0.5141,0.2384,13.98,11.84,-3.81,
36354,1661560814301,-0.9306,0.3516,-0.0433,17.06,5.5,-1.45,
36355,1661560814302,-0.9091,0.2641,0.1134,15.57,4.57,-5.28,
36356,1661560814302,-0.974,0.4141,0.3209,17.17,-1.95,-7.46,
36357,1661560814302,-0.9491,0.2837,-0.1122,18.47,-4.24,-5.64,
36358,1661560814304,-0.832,0.2822,0.005,18.77,2.28,-6.63,
36359,1661560814304,-0.9765,0.4272,0.2711,15.17,12.18,-2.0,
36360,1661560814304,-0.8134,0.2822,0.0304,17.35,0.17,-1.17,
36361,1661560814305,-0.832,0.2226,-0.2987,19.37,-0.93,-4.64,
36362,1661560814305,-0.9145,0.2168,0.4142,22.97,-0.01,-1.72,
36363,1661560814305,-0.8862,0.2427,0.046,24.57,0.17,-4.54,
36364,1661560814307,-0.7758,0.3389,0.0167,26.57,9.98,-5.64,
36365,1661560814307,-0.6215,0.1977,0.2296,27.06,14.04,-6.1,
36366,1661560814307,-0.8744,0.3574,0.151,22.16,1.68,-8.83,
36367,1661560814308,-0.7822,0.1338,-0.4423,27.76,-11.33,-3.08,
36368,1661560814308,-0.8188,0.2432,0.5426,24.46,-1.02,-5.09,
36369,1661560814308,-0.809,0.6792,0.0748,31.27,1.27,-6.1,
36370,1661560814308,-0.6401,-0.0977,-1.1649,30.96,-10.57,-0.44,
36371,1661560814309,-0.7333,0.3979,0.3693,22.16,-0.52,-7.28,
36372,1661560814309,-0.8959,0.5176,0.7906,23.87,-7.61,-1.36,
36373,1661560814310,-0.8686,0.1035,-0.4721,32.37,-25.63,-5.73,
36374,1661560814310,-0.7167,0.1855,-0.663,33.05,-15.56,-5.0,
36375,1661560814311,-0.9706,0.0532,0.8502,26.97,3.8,-8.92,
36376,1661560814311,-0.8818,0.0786,-0.1635,27.36,-10.57,-7.09,
36377,1661560814312,-0.891,-0.2285,-0.6864,30.46,-14.39,-10.56,
36378,1661560814312,-0.9589,-0.1953,0.8341,28.46,-0.26,-2.36,
36379,1661560814313,-1.037,0.0625,0.11,25.55,-7.87,-5.64,
36380,1661560814313,-0.933,-0.2315,-0.4364,27.47,-11.85,-1.36,
36381,1661560814314,-0.9823,-0.4473,-0.0346,26.07,-14.46,-5.37,
36382,1661560814314,-1.1503,-0.0381,0.6349,26.07,-12.1,-0.9,
36383,1661560814315,-0.9589,-0.4385,-0.2186,25.56,-20.98,0.38,
36384,1661560814315,-1.0702,-0.2368,0.1754,22.16,-6.01,2.57,
36385,1661560814315,-1.1845,-0.3438,0.671,20.05,-16.49,6.12,
36386,1661560814316,-1.1303,-0.063,0.1832,20.07,-21.48,-0.81,
36387,1661560814316,-1.0043,-0.1836,0.1466,22.66,-17.25,0.66,
36388,1661560814317,-1.1762,-0.1924,0.2233,17.87,-2.21,-0.26,
36389,1661560814317,-1.1347,0.0688,0.2457,14.67,2.54,-3.63,
36390,1661560814318,-1.0956,-0.0606,0.1896,15.06,-0.01,6.21,
36391,1661560814318,-1.0673,0.0815,0.1442,15.37,-12.36,0.2,
36392,1661560814320,-1.1493,0.1055,-0.0971,16.27,-18.11,2.57,
36393,1661560814320,-1.1806,-0.0064,0.3575,11.57,-6.6,-0.62,
36394,1661560814320,-1.1655,0.2397,0.2921,11.57,-2.79,-0.44,
36395,1661560814322,-1.1083,0.0991,-0.0004,14.07,-3.55,-1.17,
36396,1661560814322,-1.2973,0.1421,0.1525,14.97,3.71,-4.18,
36397,1661560814322,-1.2758,0.271,0.8463,14.47,10.91,-2.18,
36398,1661560814322,-1.1996,0.0283,0.2018,16.27,3.21,-7.83,
36399,1661560814322,-1.1308,0.1396,-0.0497,14.36,0.42,-3.26,
36400,1661560814322,-1.1611,0.1611,0.3932,13.37,14.54,-2.99,
36401,1661560814323,-1.1147,0.0762,0.5504,10.27,7.19,-3.45,
36402,1661560814323,-1.1562,0.2026,-0.2211,14.07,-3.31,-3.08,
36403,1661560814324,-1.0058,-0.0269,0.0777,16.77,-5.17,-2.64,
36404,1661560814324,-1.1781,0.3086,0.649,15.06,0.84,-4.64,
36405,1661560814325,-0.955,0.0298,-0.0199,15.48,-3.64,-3.45,
36406,1661560814325,-1.0551,0.0224,-0.2728,12.87,-2.38,-2.71,
36407,1661560814326,-1.0839,0.2988,0.569,9.37,5.66,-0.26,
36408,1661560814326,-1.0092,0.3818,0.589,10.47,-0.26,-8.01,
36409,1661560814327,-0.9408,0.374,-0.1737,12.87,-5.84,-7.09,
36410,1661560814327,-0.8583,0.3389,0.2652,15.96,2.2,-7.09,
36411,1661560814327,-0.9081,0.6396,0.567,16.88,13.78,-7.37,
36412,1661560814328,-0.9599,0.7143,0.171,16.27,9.05,-4.82,
36413,1661560814328,-0.8266,0.3745,-0.4725,14.87,4.06,-4.91,
36414,1661560814329,-0.8202,0.5967,0.2164,11.77,6.0,-3.45,
36415,1661560814329,-0.8486,0.582,0.213,17.87,-2.79,-8.74,
36416,1661560814330,-0.8227,0.5991,-0.2396,24.66,-2.88,-7.83,
36417,1661560814330,-0.7582,0.5332,-0.1923,25.76,2.95,-6.19,
36418,1661560814331,-0.8383,0.3877,0.2643,22.16,13.52,-8.37,
36419,1661560814331,-0.8022,0.5737,0.2067,23.47,11.75,-9.47,
36420,1661560814331,-0.7729,0.1572,-0.2709,25.47,2.7,-10.92,
36421,1661560814332,-0.6928,0.1777,0.1901,28.17,4.06,-5.37,
36422,1661560814332,-0.8813,0.2637,0.0983,30.06,2.28,-7.28,
36423,1661560814333,-0.7822,0.0605,-0.1893,31.06,-0.85,-1.26,
36424,1661560814333,-0.7031,0.0044,-0.3734,22.27,-8.13,-1.54,
36425,1661560814334,-0.974,0.1665,0.2574,21.96,-2.12,-3.45,
36426,1661560814334,-0.5864,-0.1362,-0.1967,23.56,-18.44,0.11,
36427,1661560814335,-0.8212,0.102,-0.224,27.96,-4.57,-4.18,
36428,1661560814335,-0.6874,-0.0518,0.193,25.56,-2.55,-5.64,
36429,1661560814336,-1.0141,0.0488,-0.035,20.86,-19.8,-5.37,
36430,1661560814337,-0.9389,-0.0684,0.0992,26.66,-13.53,-4.18,
36431,1661560814337,-0.8989,-0.0274,0.1822,27.76,-6.94,-6.01,
36432,1661560814338,-0.8295,0.3159,-0.0805,27.96,0.92,-7.92,
36433,1661560814338,-0.8788,-0.1309,-0.0927,28.37,-3.48,-3.26,
36434,1661560814339,-0.9267,0.0849,0.1964,28.06,-4.65,-3.17,
36435,1661560814339,-0.9106,0.0391,-0.1361,26.86,-17.35,-5.73,
36436,1661560814339,-0.9994,0.0376,0.0568,28.66,-12.19,-3.72,
36437,1661560814339,-0.9623,-0.0225,0.0431,26.07,-12.86,-3.63,
36438,1661560814340,-0.9169,-0.2217,-0.099,20.57,-11.85,-4.18,
36439,1661560814340,-1.0448,0.0337,0.1754,25.47,-8.89,-5.28,
36440,1661560814341,-1.1205,-0.1084,0.4259,26.66,-11.43,-5.64,
36441,1661560814342,-1.0527,-0.19,0.1378,27.67,-10.83,-2.9,
36442,1661560814342,-1.1137,-0.2051,0.003,25.06,-3.89,0.57,
36443,1661560814342,-1.1186,-0.3941,0.5636,19.78,3.38,-1.72,
36444,1661560814343,-1.1904,-0.0879,0.2135,14.87,-7.28,-5.64,
36445,1661560814343,-1.0541,-0.3013,-0.1342,14.47,-19.38,-1.08,
36446,1661560814344,-1.2782,-0.1914,0.2902,17.47,-8.63,-0.07,
36447,1661560814344,-1.2826,-0.023,0.485,18.07,6.67,1.47,
36448,1661560814345,-1.1342,-0.3657,-0.1078,12.07,-16.08,4.49,
36449,1661560814345,-1.2177,0.0122,0.1998,8.87,-16.16,-0.71,
36450,1661560814346,-1.2846,0.0044,0.8229,12.36,-15.56,2.38,
36451,1661560814346,-1.2714,-0.0186,-0.0775,16.07,-9.64,2.2,
36452,1661560814347,-1.2074,0.2007,0.3653,15.26,11.49,1.65,
36453,1661560814347,-1.2045,0.0591,0.7403,11.48,21.64,-2.09,
36454,1661560814347,-1.1977,0.2934,0.6505,9.97,11.49,-0.9,
36455,1661560814348,-1.0536,0.2422,-0.1317,13.87,0.84,-3.17,
36456,1661560814348,-1.1415,0.208,0.2667,14.35,2.7,-3.54,
36457,1661560814348,-1.2382,0.5015,0.4503,15.77,3.8,-4.09,
36458,1661560814349,-1.0868,0.3389,0.1456,14.97,1.85,1.47,
36459,1661560814350,-1.0864,0.2344,-0.0009,12.67,8.46,-5.64,
36460,1661560814350,-1.1005,0.4599,0.4737,10.97,3.54,-5.37,
36461,1661560814351,-1.1,0.3618,0.2657,12.47,-2.12,-4.91,
36462,1661560814351,-0.9487,0.3227,-0.14,15.67,-7.2,-2.71,
36463,1661560814351,-0.9643,0.2783,0.1241,15.77,5.57,0.57,
36464,1661560814352,-1.0351,0.3589,0.5309,15.48,11.08,-2.9,
36465,1661560814352,-1.0004,0.3188,-0.2445,14.36,6.76,-0.99,
36466,1661560814354,-0.8002,0.1382,-0.1893,12.27,8.03,-3.45,
36467,1661560814354,-1.0527,0.4448,0.4664,15.48,7.27,-5.09,
36468,1661560814354,-1.1567,0.397,0.2755,17.76,-4.57,-3.9,
36469,1661560814354,-0.7616,0.0986,-0.6073,20.97,-19.62,-4.18,
36470,1661560814355,-0.9423,0.3745,0.2955,16.77,4.23,-1.45,
36471,1661560814356,-0.8173,0.3721,0.5597,14.77,8.62,1.74,
36472,1661560814356,-0.8793,0.2383,-0.3544,17.96,-1.28,-3.72,
36473,1661560814356,-0.8471,0.1621,-0.1322,19.17,9.13,0.2,
36474,1661560814356,-0.9091,0.3906,0.7667,22.07,10.73,-4.91,
36475,1661560814357,-0.7656,0.5771,0.1105,25.56,5.24,-4.73,
36476,1661560814357,-0.6508,0.1147,-0.3373,31.96,4.99,-0.26,
36477,1661560814358,-0.8324,0.5146,0.3063,24.37,12.01,-6.47,
36478,1661560814360,-0.8476,0.5215,0.1754,27.56,1.85,-3.63,
36479,1661560814360,-0.7509,0.1631,-0.351,25.36,-6.85,-4.73,
36480,1661560814360,-0.7255,0.5483,-0.1254,28.06,-3.14,-5.64,
36481,1661560814360,-0.5966,0.1587,-0.3817,27.96,-15.23,-0.62,
36482,1661560814361,-0.6679,0.3799,-0.1293,29.47,-4.32,-7.64,
36483,1661560814361,-0.7743,0.2339,0.1315,26.16,-5.34,-7.18,
36484,1661560814361,-0.8583,0.0781,-0.3646,28.86,-11.0,-7.18,
36485,1661560814361,-0.8935,0.1079,-0.1122,31.47,-15.39,-6.82,
36486,1661560814362,-0.9037,-0.106,0.3097,31.56,6.43,-7.73,
36487,1661560814362,-0.8422,-0.1489,0.0528,29.27,-3.89,-8.56,
36488,1661560814363,-0.9516,0.0293,-0.4769,26.97,-7.7,-9.02,
36489,1661560814363,-0.8925,-0.3389,0.3136,27.36,-8.71,-6.63,
36490,1661560814364,-1.0195,-0.0342,0.2101,25.96,-14.39,-7.0,
36491,1661560814364,-0.9218,-0.4004,-0.3363,29.67,-16.66,-2.55,
36492,1661560814365,-1.1166,-0.2739,0.3141,23.27,-15.39,2.02,
36493,1661560814365,-1.0468,-0.1255,0.7125,20.57,-10.07,0.02,
36494,1661560814366,-0.9604,-0.2901,0.2262,24.37,-20.55,1.56,
36495,1661560814366,-1.0536,-0.1817,-0.2338,27.96,-10.57,-1.36,
36496,1661560814367,-1.1269,-0.2559,0.7213,23.76,-6.27,4.4,
36497,1661560814367,-1.1347,-0.0864,0.4835,20.66,-14.89,-2.36,
36498,1661560814367,-1.0507,0.0117,-0.2675,19.67,-21.24,-0.53,
36499,1661560814368,-1.1601,-0.2715,0.1578,19.67,-1.45,1.93,
36500,1661560814369,-1.121,0.2051,0.4142,18.16,3.8,-0.26,
36501,1661560814369,-1.099,-0.0772,-0.2562,16.86,-8.63,-0.62,
36502,1661560814369,-1.1152,-0.0557,-0.2118,16.16,-18.11,-1.45,
36503,1661560814371,-1.1894,0.1372,0.3546,19.76,-14.63,0.2,
36504,1661560814371,-1.2782,-0.0156,0.4205,14.97,-5.34,-0.81,
36505,1661560814372,-1.207,0.2309,0.1002,13.07,-5.67,-3.35,
36506,1661560814372,-1.2514,-0.1118,0.2169,12.87,0.34,2.84,
36507,1661560814372,-1.2983,0.1025,0.609,14.87,6.5,0.66,
36508,1661560814372,-1.2734,0.2251,0.4972,16.77,5.92,-2.09,
36509,1661560814373,-1.1279,-0.106,0.107,16.27,4.14,-2.55,
36510,1661560814373,-1.2104,0.1401,0.277,12.87,8.79,-2.0,
36511,1661560814373,-1.122,0.0356,0.4171,13.57,12.52,2.47,
36512,1661560814374,-1.1449,0.0185,-0.0175,10.36,0.34,-1.54,
36513,1661560814374,-1.2114,0.1728,0.024,12.78,0.08,-3.63,
36514,1661560814375,-1.0331,-0.0635,0.3307,13.37,-8.04,-1.72,
36515,1661560814375,-1.2421,0.2876,0.5323,13.87,-1.95,-2.9,
36516,1661560814376,-0.9926,0.1411,0.3561,14.47,-0.52,-0.07,
36517,1661560814376,-1.1845,0.1675,-0.0097,14.96,-2.29,-1.72,
36518,1661560814377,-1.0019,0.3901,0.5001,12.67,14.45,-1.45,
36519,1661560814377,-0.9906,0.3467,0.5836,9.77,8.2,1.19,
36520,1661560814377,-0.9496,0.4057,0.1241,9.48,5.92,-1.36,
36521,1661560814378,-0.8764,0.4912,-0.1718,11.68,-4.65,-2.18,
36522,1661560814379,-0.9423,0.5259,0.1266,16.38,8.03,-3.72,
36523,1661560814379,-0.8364,0.7222,0.1554,18.16,3.3,-4.82,
36524,1661560814379,-0.8539,0.4385,-0.2689,18.16,-1.19,1.83,
36525,1661560814380,-0.8622,0.4741,-0.0155,14.77,3.97,-1.81,
36526,1661560814380,-0.8754,0.6802,0.1988,18.16,-0.26,-3.72,
36527,1661560814381,-0.8749,0.4971,0.0138,24.77,4.4,-1.45,
36528,1661560814381,-0.7812,0.4551,-0.0971,30.46,5.33,-4.45,
36529,1661560814382,-0.8881,0.2715,0.1847,21.37,13.61,-1.36,
36530,1661560814382,-0.83,0.3452,0.3277,22.07,11.49,-5.73,
36531,1661560814383,-0.8271,0.2505,-0.2274,22.88,3.47,-2.99,
36532,1661560814383,-0.6117,0.0283,-0.0097,25.96,3.04,-0.99,
36533,1661560814383,-0.8613,0.2783,0.2452,28.96,1.1,-2.55,
36534,1661560814384,-0.891,0.2104,-0.0302,28.37,-4.32,-4.45,
36535,1661560814384,-0.7372,-0.1675,-0.661,29.06,-14.98,-3.54,
36536,1661560814385,-0.9399,0.1357,0.3937,27.96,1.35,0.66,
36537,1661560814385,-0.5688,0.1211,0.2125,23.96,-8.8,-2.36,
36538,1661560814386,-0.6786,0.0391,-0.6068,26.07,-20.38,-1.81,
36539,1661560814386,-0.7177,0.0498,0.1988,26.26,-9.4,-4.64,
36540,1661560814387,-0.9687,0.0644,0.3761,25.76,-3.05,0.38,
36541,1661560814387,-0.7934,0.1894,-0.0726,29.27,-5.25,-3.9,
36542,1661560814388,-0.8437,-0.0098,-0.285,28.58,-10.92,-2.27,
36543,1661560814389,-0.8129,0.2964,0.2779,26.86,-1.61,-4.54,
36544,1661560814389,-0.8451,0.102,-0.2191,28.46,-5.84,-6.47,
36545,1661560814389,-0.8949,-0.084,-0.1527,26.66,-4.82,-4.18,
36546,1661560814389,-1.0248,0.126,0.3551,27.27,-11.67,-2.55,
36547,1661560814390,-0.9994,-0.0078,-0.0936,27.47,-17.42,-1.72,
36548,1661560814390,-0.9247,0.0317,-0.1952,28.58,-14.22,-7.64,
36549,1661560814391,-1.0058,-0.2056,0.2135,24.86,-4.32,-6.63,
36550,1661560814391,-1.1508,-0.0884,0.5084,25.36,-6.1,-6.01,
36551,1661560814392,-1.0585,-0.2246,-0.0995,30.57,-13.7,-6.01,
36552,1661560814392,-1.018,-0.4336,0.1832,24.97,-8.8,-0.44,
36553,1661560814393,-1.1777,-0.1953,0.3478,19.73,-13.04,-3.45,
36554,1661560814393,-1.0785,-0.376,-0.0512,20.07,-9.99,2.11,
36555,1661560814394,-1.1132,-0.1836,0.2477,18.07,-4.82,0.38,
36556,1661560814394,-1.1855,-0.167,0.2838,15.08,-3.98,-1.17,
36557,1661560814395,-1.08,-0.398,0.0104,11.68,-21.57,-0.17,
36558,1661560814395,-1.2333,-0.0947,0.235,14.87,-12.6,-3.45,
36559,1661560814396,-1.2172,-0.1314,0.5182,17.76,-14.39,0.75,
36560,1661560814396,-1.2016,-0.0137,0.0499,15.87,-2.55,-0.71,
36561,1661560814397,-1.2524,0.1313,0.567,12.27,7.19,4.4,
36562,1661560814397,-1.3158,-0.0796,0.2818,10.78,6.26,-0.26,
36563,1661560814398,-1.1674,0.3179,0.1236,11.97,-1.28,-4.36,
36564,1661560814398,-1.1908,0.2783,0.4435,13.17,4.31,1.83,
36565,1661560814398,-1.204,0.2217,0.4269,15.17,5.74,0.66,
36566,1661560814399,-1.1142,0.2964,-0.307,17.06,1.61,2.11,
36567,1661560814399,-1.1674,0.1494,0.256,12.67,5.24,0.84,
36568,1661560814400,-1.2084,0.3169,0.6822,9.57,7.86,-2.36,
36569,1661560814400,-1.1738,0.3491,0.2853,11.68,-4.74,-6.28,
36570,1661560814401,-1.1459,0.1733,-0.0131,13.48,-8.8,-8.74,
36571,1661560814401,-1.1181,0.3628,0.5694,18.47,-0.85,-7.55,
36572,1661560814401,-1.0409,0.2427,0.5558,18.67,16.31,-8.1,
36573,1661560814403,-1.0058,0.2143,0.1075,15.17,15.38,-6.73,
36574,1661560814403,-1.0307,0.1982,-0.1581,10.27,11.66,-5.92,
36575,1661560814404,-0.9955,0.2119,0.4864,6.78,4.99,-8.92,
36576,1661560814404,-1.0087,0.3974,0.1036,11.48,-2.62,-2.18,
36577,1661560814404,-0.8193,0.0835,-0.4525,18.38,-10.49,-2.81,
36578,1661560814404,-1.0185,0.3408,0.2965,15.67,3.97,-4.36,
36579,1661560814406,-1.0732,0.436,0.5699,15.77,14.71,-1.9,
36580,1661560814406,-0.7363,0.1484,-0.1552,15.87,-7.96,-1.9,
36581,1661560814406,-0.8573,0.3931,-0.0326,20.57,-9.64,-4.73,
36582,1661560814406,-0.8754,0.4219,0.8341,18.57,-1.52,-6.91,
36583,1661560814406,-0.9589,0.3447,-0.0785,23.96,-0.68,-5.0,
36584,1661560814407,-0.8217,0.2656,-0.0814,22.37,10.56,-2.27,
36585,1661560814407,-0.8183,0.3149,0.4562,20.37,20.72,0.48,
36586,1661560814408,-0.8486,0.7207,0.5987,23.06,13.61,-6.19,
36587,1661560814408,-0.5673,0.2964,-0.6747,26.86,3.21,-1.36,
36588,1661560814409,-0.7157,0.311,-0.3139,28.06,6.34,-7.55,
36589,1661560814409,-0.8422,0.5527,0.381,26.07,6.26,-6.38,
36590,1661560814410,-0.8217,0.3369,0.1456,25.76,-2.88,-1.08,
36591,1661560814410,-0.6454,0.3501,-0.5131,29.06,-11.17,-4.45,
36592,1661560814411,-0.6547,0.2851,-0.2445,31.88,-11.26,-2.81,
36593,1661560814411,-0.7597,0.3208,0.3043,32.96,4.99,-3.72,
36594,1661560814412,-0.7387,0.1431,-0.245,32.37,-2.88,2.66,
36595,1661560814413,-0.7079,-0.2134,-0.2025,28.46,3.63,0.38,
36596,1661560814413,-0.8964,0.1465,0.2008,25.96,-12.69,-2.09,
36597,1661560814415,-0.9882,0.0889,0.1705,30.86,-10.16,-4.36,
36598,1661560814415,-0.811,-0.3618,-0.2704,32.96,-13.62,-0.35,
36599,1661560814415,-0.9599,-0.0244,-0.1527,25.17,-2.71,-6.01,
36600,1661560814415,-0.9028,-0.1968,0.213,21.27,-8.04,-2.9,
36601,1661560814415,-0.9086,-0.2178,-0.0165,23.06,-19.28,-6.56,
36602,1661560814415,-0.975,-0.1568,0.0826,31.56,-20.21,-3.17,
36603,1661560814415,-1.101,-0.2222,0.1246,28.46,-14.29,-5.09,
36604,1661560814415,-1.0732,-0.0498,0.4654,21.17,-7.44,-4.36,
36605,1661560814416,-1.0605,-0.1734,0.2921,22.57,-8.13,-4.82,
36606,1661560814416,-1.04,0.0078,-0.1459,27.87,-12.26,-9.11,
36607,1661560814417,-1.0351,-0.1611,0.0416,25.76,-3.64,-2.9,
36608,1661560814417,-1.1645,-0.1265,0.7189,20.16,-0.35,-2.27,
36609,1661560814419,-1.0702,0.1753,-0.1879,21.47,-14.39,0.48,
36610,1661560814419,-1.0927,-0.2695,-0.4818,19.47,-18.44,2.66,
36611,1661560814419,-1.1918,0.1348,0.7511,19.26,-8.13,-0.99,
36612,1661560814421,-1.0356,-0.0005,0.046,15.48,-18.35,0.75,
36613,1661560814421,-1.0571,0.062,-0.3041,19.76,-13.03,-1.08,
36614,1661560814422,-1.2372,-0.0596,0.8331,20.16,0.42,1.38,
36615,1661560814422,-1.3158,-0.1729,0.9191,12.78,0.92,-1.08,
36616,1661560814422,-1.2143,0.0766,-0.0443,12.67,-12.02,-2.81,
36617,1661560814422,-1.1938,-0.1704,0.0192,17.67,2.37,1.83,
36618,1661560814422,-1.2289,0.021,0.8053,17.26,8.88,1.12,
36619,1661560814422,-1.3075,0.1787,0.1969,14.36,8.53,-2.45,
36620,1661560814423,-1.1415,-0.1201,-0.1337,15.06,0.34,0.57,
36621,1661560814423,-1.2148,-0.0249,0.1066,14.36,1.18,-5.28,
36622,1661560814424,-1.2367,0.1162,0.569,12.58,2.44,3.57,
36623,1661560814424,-1.1908,-0.083,0.0216,11.57,-11.09,-0.99,
36624,1661560814424,-1.185,0.1875,0.4303,13.17,0.92,1.56,
36625,1661560814426,-1.0463,0.1255,0.6324,13.68,-2.29,3.85,
36626,1661560814426,-1.3071,0.2715,0.4415,15.25,-0.85,1.56,
36627,1661560814426,-1.0761,0.271,0.3473,11.48,1.44,0.11,
36628,1661560814426,-1.1723,0.0273,0.2272,13.37,-4.74,2.38,
36629,1661560814427,-1.0087,0.2788,0.3561,12.07,3.88,-1.36,
36630,1661560814427,-1.0077,0.581,0.3038,15.25,9.22,-2.27,
36631,1661560814428,-0.9452,0.2803,-0.1571,15.06,13.87,-2.0,
36632,1661560814428,-0.9794,0.5156,-0.1752,13.77,2.78,-1.81,
36633,1661560814429,-1.0439,0.5381,0.2272,12.87,2.28,-1.63,
36634,1661560814429,-0.9233,0.6807,0.2467,11.87,-4.41,-5.64,
36635,1661560814429,-0.8783,0.4292,-0.286,15.37,-7.87,-3.63,
36636,1661560814430,-0.9775,0.4253,0.1827,22.07,8.46,-5.73,
36637,1661560814430,-0.936,0.5718,0.3253,24.59,9.39,-5.64,
36638,1661560814431,-0.7573,0.2759,-0.0497,24.16,13.19,-6.38,
36639,1661560814431,-0.8837,0.3281,0.1593,21.56,13.02,-6.01,
36640,1661560814432,-0.975,0.3403,0.2882,18.77,16.91,-3.72,
36641,1661560814432,-0.7558,0.1787,0.0367,23.76,4.4,-3.54,
36642,1661560814433,-0.7685,0.2353,-0.202,28.57,6.26,-4.09,
36643,1661560814433,-0.6449,0.0962,0.003,27.87,7.95,0.57,
36644,1661560814433,-0.7953,0.1216,-0.0365,26.57,3.04,-4.82,
36645,1661560814434,-0.8642,0.1533,-0.1098,23.47,-7.44,-2.09,
36646,1661560814434,-0.7656,-0.1133,-0.2499,25.76,-18.52,-1.9,
36647,1661560814436,-0.832,0.2705,0.3033,28.58,-3.89,-3.17,
36648,1661560814436,-0.6728,0.2021,0.2999,25.87,2.54,-3.17,
36649,1661560814436,-0.7104,0.0591,-0.4994,24.66,-2.21,-3.35,
36650,1661560814436,-0.7748,0.1719,-0.0663,25.56,-8.47,-1.08,
36651,1661560814438,-0.9443,0.063,0.4903,25.87,-3.22,-0.53,
36652,1661560814438,-0.7831,0.3052,0.1627,27.76,-5.84,-4.91,
36653,1661560814438,-0.7138,0.1357,-0.8373,30.46,-13.12,-4.27,
36654,1661560814438,-0.832,0.06,-0.1459,26.16,-5.25,-8.74,
36655,1661560814438,-0.9653,0.2436,0.2936,25.67,-13.7,-7.73,
36656,1661560814439,-0.9408,-0.1812,-0.3788,29.56,-20.73,-5.73,
36657,1661560814440,-0.9325,0.1474,0.0543,30.66,-13.96,-8.37,
36658,1661560814440,-1.019,-0.0781,0.4689,27.56,-8.21,-2.36,
36659,1661560814441,-0.977,-0.1719,-0.037,28.08,-11.33,-2.81,
36660,1661560814441,-0.9926,-0.1773,-0.1171,26.86,-6.34,-7.09,
36661,1661560814441,-1.0688,-0.2759,0.5221,23.96,4.23,-3.17,
36662,1661560814443,-1.0981,-0.145,0.1954,24.16,-6.77,-5.83,
36663,1661560814443,-1.0488,-0.3623,-0.1117,26.07,-7.53,0.48,
36664,1661560814443,-1.2363,-0.3042,0.4029,25.56,-11.33,1.19,
36665,1661560814443,-1.1908,-0.2222,0.0812,20.97,-20.05,3.12,
36666,1661560814444,-0.9462,-0.3071,-0.1654,16.86,-25.89,2.84,
36667,1661560814444,-1.1576,0.0454,0.6139,18.77,-2.88,2.02,
36668,1661560814445,-1.1078,-0.1323,0.5011,18.76,-5.75,2.66,
36669,1661560814445,-1.2314,-0.2222,-0.101,17.26,-7.61,2.47,
36670,1661560814445,-1.2192,0.0224,0.5465,14.67,-4.65,2.57,
36671,1661560814446,-1.3022,-0.0147,0.4908,13.69,-8.71,-2.99,
36672,1661560814446,-1.185,0.1709,0.1803,15.37,-3.14,-2.18,
36673,1661560814447,-1.226,0.0229,0.1827,15.48,0.92,-1.17,
36674,1661560814447,-1.228,0.0605,0.2486,13.48,8.46,-4.18,
36675,1661560814448,-1.2133,0.3672,0.2233,14.16,7.19,1.12,
36676,1661560814448,-1.2065,0.1782,0.1334,17.96,3.97,-1.36,
36677,1661560814449,-1.1606,0.3257,0.0304,12.87,0.08,-0.53,
36678,1661560814449,-1.1581,0.3247,0.1515,12.58,-0.68,1.83,
36679,1661560814450,-1.2446,0.2373,0.4606,11.97,0.34,-2.36,
36680,1661560814450,-1.1855,0.2466,0.2316,15.87,1.61,0.02,
36681,1661560814451,-1.1176,0.1377,0.3107,16.97,7.53,-2.71,
36682,1661560814451,-1.1376,0.2026,0.3937,19.06,7.19,-0.99,
36683,1661560814451,-1.1093,0.1914,0.3561,14.97,8.46,-3.35,
36684,1661560814453,-0.9628,0.0976,0.1222,14.07,3.13,-5.83,
36685,1661560814453,-1.1064,0.2471,0.0914,9.97,-0.35,-6.19,
36686,1661560814453,-0.9711,0.1025,0.1608,11.17,-0.59,-1.9,
36687,1661560814454,-0.9887,0.1035,0.0475,14.07,-3.38,0.93,
36688,1661560814454,-1.0317,0.3335,0.0035,19.87,-1.02,-1.54,
36689,1661560814455,-0.891,0.1245,0.0519,17.06,-2.29,0.93,
36690,1661560814455,-1.0112,0.4448,0.3907,15.26,-1.11,-4.73,
36691,1661560814455,-0.7621,0.2143,0.0445,14.77,-7.61,-3.9,
36692,1661560814455,-0.8398,0.2427,-0.0673,16.16,-3.89,2.66,
36693,1661560814456,-0.9413,0.5806,0.2648,20.07,10.56,-2.45,
36694,1661560814456,-0.9306,0.2378,0.2374,21.46,15.55,1.56,
36695,1661560814457,-0.8383,0.5654,0.0289,21.76,15.38,-0.62,
36696,1661560814457,-0.766,0.5156,0.0406,24.77,14.8,0.11,
36697,1661560814458,-0.8095,0.4009,0.0426,25.76,9.72,1.12,
36698,1661560814458,-0.7275,0.5405,-0.1171,24.77,6.09,-6.28,
36699,1661560814458,-0.7099,0.2661,-0.3236,24.13,-3.06,0.84,
36700,1661560814460,-0.8046,0.4624,0.0392,21.67,3.54,-7.0,
36701,1661560814460,-0.7699,0.4101,0.0328,28.57,0.67,-4.64,
36702,1661560814460,-0.7431,0.2036,-0.0834,30.96,0.42,-9.38,
36703,1661560814460,-0.7074,0.2651,-0.1918,31.47,-6.01,-8.65,
36704,1661560814461,-0.8212,0.1186,0.0817,29.96,2.7,-6.19,
36705,1661560814461,-0.7695,0.0474,0.1173,28.77,2.11,-7.09,
36706,1661560814463,-0.7797,0.126,-0.285,28.77,-3.48,-1.45,
36707,1661560814463,-0.6781,-0.0435,-0.2924,27.36,-5.58,-3.63,
36708,1661560814463,-0.8383,-0.1275,0.0187,27.36,-15.39,-5.0,
36709,1661560814463,-0.9614,-0.0005,0.0504,32.96,-15.82,-3.35,
36710,1661560814463,-0.8437,-0.3115,-0.3895,30.96,-16.16,-0.17,
36711,1661560814465,-1.0287,-0.0029,0.1964,26.57,-0.59,0.57,
36712,1661560814465,-0.8154,-0.1821,0.3736,23.96,-11.09,2.75,
36713,1661560814465,-0.9496,-0.0391,-0.2279,26.57,-26.06,-0.44,
36714,1661560814466,-0.9467,-0.1372,0.2008,29.87,-10.16,0.29,
36715,1661560814466,-1.0732,-0.0606,0.4972,26.84,-5.41,-0.44,
36716,1661560814467,-0.9643,-0.0347,0.088,25.18,-3.14,-0.44,
36717,1661560814467,-0.997,-0.1504,-0.0048,27.47,-10.33,0.48,
36718,1661560814467,-1.0219,0.0434,0.1559,29.18,-5.25,0.38,
36719,1661560814469,-0.9614,-0.0601,0.2101,27.96,-6.34,-1.45,
36720,1661560814469,-1.0419,-0.0108,0.0587,21.26,-8.37,-1.36,
36721,1661560814470,-1.0419,-0.0171,-0.0297,19.96,-13.29,1.65,
36722,1661560814470,-1.1806,-0.1807,0.2696,21.26,-13.2,1.02,
36723,1661560814470,-1.1698,0.1289,0.3653,23.07,-13.88,-0.44,
36724,1661560814470,-1.122,-0.0049,0.2174,20.16,-9.06,4.58,
36725,1661560814471,-1.1381,-0.1084,0.1393,15.67,-0.01,1.19,
36726,1661560814471,-1.1816,-0.0889,0.235,15.57,1.94,1.19,
36727,1661560814472,-1.1005,-0.2212,0.2579,12.67,2.11,-0.9,
36728,1661560814472,-1.2782,0.0312,0.0895,15.67,-8.97,-3.45,
36729,1661560814472,-1.2138,-0.1611,0.2408,17.76,-4.41,0.57,
36730,1661560814473,-1.184,-0.1226,0.2667,15.86,-5.51,2.57,
36731,1661560814473,-1.3046,0.1885,0.3116,14.16,6.76,3.21,
36732,1661560814474,-1.0575,-0.2046,0.0382,13.48,-3.22,3.39,
36733,1661560814474,-1.2577,0.1484,0.3214,13.57,-0.35,-2.0,
36734,1661560814475,-1.1274,0.0801,0.65,13.37,0.84,-1.17,
36735,1661560814475,-1.1664,0.0024,0.3424,15.57,-8.37,-0.9,
36736,1661560814476,-1.185,0.312,0.2613,17.87,8.36,-1.26,
36737,1661560814476,-1.1152,0.187,0.5362,15.49,9.63,1.93,
36738,1661560814476,-1.0966,0.3408,0.3834,11.59,11.75,1.65,
36739,1661560814477,-1.1293,0.4551,0.3185,13.07,2.95,-0.99,
36740,1661560814477,-1.1152,0.1391,0.0704,14.87,-6.34,3.57,
36741,1661560814478,-0.9736,0.54,0.1056,12.67,-5.58,0.2,
36742,1661560814479,-0.9526,0.4551,0.1559,13.39,-2.29,0.93,
36743,1661560814479,-0.9194,0.3882,-0.056,15.87,7.69,1.02,
36744,1661560814479,-0.956,0.4761,-0.1532,17.17,5.57,0.66,
36745,1661560814479,-0.978,0.4473,0.2403,14.77,12.01,-3.45,
36746,1661560814481,-0.955,0.521,0.1695,18.16,-1.61,-1.54,
36747,1661560814481,-0.8823,0.2734,-0.1239,18.57,-2.88,-8.83,
36748,1661560814481,-0.8886,0.3413,0.359,21.67,1.35,-5.0,
36749,1661560814482,-0.9692,0.4043,0.3663,22.07,6.76,-8.37,
36750,1661560814482,-0.8642,0.2168,-0.0888,21.17,12.52,-5.55,
36751,1661560814482,-0.8256,0.25,-0.0131,21.47,10.73,-5.09,
36752,1661560814483,-0.9799,0.3574,0.3673,22.07,8.7,-3.17,
36753,1661560814483,-0.8437,0.0693,-0.2045,25.17,-9.14,-5.19,
36754,1661560814484,-0.766,0.2417,0.024,28.46,-0.85,-6.91,
36755,1661560814484,-0.7533,0.2158,0.3375,27.36,6.26,-0.07,
36756,1661560814485,-0.849,0.2139,0.1612,23.07,1.1,-0.71,
36757,1661560814486,-0.8564,0.0786,-0.2924,25.56,-8.8,2.57,
36758,1661560814486,-0.8813,0.0205,0.2281,22.57,-2.79,-0.26,
36759,1661560814487,-0.7675,0.6655,0.4313,27.47,1.1,-6.38,
36760,1661560814487,-0.747,0.3725,-0.0892,32.57,-0.35,-1.63,
36761,1661560814487,-0.7651,-0.1192,-0.5736,29.36,6.34,-4.64,
36762,1661560814487,-0.8315,0.4424,0.1901,24.97,5.57,-5.09,
36763,1661560814488,-0.8168,0.1787,0.0133,22.37,-5.25,-1.45,
36764,1661560814488,-0.7074,0.2798,-0.6693,28.46,-16.08,-5.92,
36765,1661560814489,-0.6664,0.0498,-0.2308,32.26,-10.24,-1.08,
36766,1661560814490,-0.8573,0.2451,0.2696,28.06,-3.64,-8.01,
36767,1661560814490,-0.8984,0.2598,0.006,27.74,-15.91,-7.64,
36768,1661560814491,-0.9345,-0.2085,-0.2435,33.07,-11.93,-9.84,
36769,1661560814491,-0.9164,0.0171,0.3077,34.96,-6.77,-5.0,
36770,1661560814491,-1.0033,-0.0952,0.2457,27.88,-4.57,-7.46,
36771,1661560814492,-0.9614,-0.3574,0.0079,26.37,-4.07,-0.9,
36772,1661560814493,-1.0785,-0.104,0.149,25.36,-6.94,-3.9,
36773,1661560814493,-0.9233,-0.2598,0.2618,23.67,-6.85,1.65,
36774,1661560814493,-1.0448,-0.2544,0.1153,26.97,-11.33,-2.71,
36775,1661560814493,-1.1103,-0.3193,-0.037,26.46,-9.3,1.47,
36776,1661560814494,-1.1938,-0.4009,0.1232,22.86,-17.85,-3.26,
36777,1661560814494,-1.1816,-0.0298,0.4791,20.57,-13.03,0.02,
36778,1661560814495,-0.954,-0.2827,0.0333,18.86,-24.79,-1.17,
36779,1661560814495,-1.1059,-0.0288,0.1603,20.37,-14.81,-1.81,
36780,1661560814496,-1.0439,-0.0933,0.4303,17.87,-3.05,6.03,
36781,1661560814496,-1.1679,-0.0503,0.2301,17.26,4.9,0.93,
36782,1661560814496,-1.0893,0.1514,0.2023,14.97,1.01,-0.53,
36783,1661560814498,-1.1957,0.0425,0.1695,13.87,-2.71,-0.35,
36784,1661560814498,-1.0712,0.187,0.2237,14.36,-3.38,3.02,
36785,1661560814498,-1.0942,0.1162,-0.0346,16.57,-6.68,-2.71,
36786,1661560814499,-1.1762,0.1616,0.1544,16.27,-7.03,2.02,
36787,1661560814499,-1.2446,0.3511,0.3492,13.97,2.54,-3.08,
36788,1661560814499,-1.1249,0.2417,0.3766,15.06,10.06,-5.09,
36789,1661560814500,-1.1542,0.2256,0.0782,16.27,4.73,-3.45,
36790,1661560814500,-1.1733,0.2109,0.4938,15.37,4.47,-5.0,
36791,1661560814501,-1.183,0.189,0.5973,13.87,2.28,0.84,
36792,1661560814501,-1.1645,0.1133,0.2423,16.96,0.25,-3.72,
36793,1661560814502,-1.1176,0.0522,0.0758,16.38,10.73,-1.63,
36794,1661560814503,-1.1713,0.1787,0.6017,15.06,14.88,1.19,
36795,1661560814503,-1.1093,0.2173,0.1378,14.97,11.16,-2.55,
36796,1661560814504,-0.9169,0.0058,-0.2011,14.87,-1.35,-2.9,
36797,1661560814504,-1.1366,0.104,0.0651,9.97,-0.52,-6.38,
36798,1661560814505,-1.1264,0.167,0.4615,15.37,-4.82,-6.19,
36799,1661560814505,-1.0209,0.2324,-0.1151,15.87,-8.04,-5.55,
36800,1661560814505,-0.9902,0.2641,0.2296,15.57,6.34,-0.99,
36801,1661560814505,-0.978,0.3183,0.4913,12.67,5.33,-4.82,
36802,1661560814506,-1.081,0.479,0.2745,15.17,-1.69,-0.26,
36803,1661560814506,-0.8398,0.2617,-0.1127,16.07,-7.03,-1.63,
36804,1661560814507,-1.0458,0.3994,0.3985,20.77,6.0,-3.72,
36805,1661560814507,-0.976,0.5879,0.3063,22.46,7.77,-0.9,
36806,1661560814507,-0.8735,0.3071,-0.2772,23.87,8.2,-4.54,
36807,1661560814508,-0.8095,0.5088,-0.1371,22.57,18.27,-2.64,
36808,1661560814508,-0.8793,0.6172,0.2228,20.37,8.2,-4.91,
36809,1661560814510,-0.8115,0.3462,-0.0629,21.26,4.73,-4.54,
36810,1661560814510,-0.7958,0.5303,-0.1185,27.47,1.61,-7.73,
36811,1661560814510,-0.8188,0.2744,0.0773,27.65,5.33,-0.35,
36812,1661560814510,-0.7787,0.5039,0.0021,31.36,6.17,-1.63,
36813,1661560814511,-0.7402,0.3276,-0.1156,30.96,8.53,-2.36,
36814,1661560814512,-0.6855,-0.0132,-0.1083,29.56,9.3,-4.54,
36815,1661560814512,-0.7817,0.2051,-0.1723,31.27,1.61,-3.54,
36816,1661560814513,-0.8129,-0.0508,-0.036,28.96,3.04,-0.44,
36817,1661560814513,-0.6445,0.0083,-0.0121,28.37,-3.48,-0.44,
36818,1661560814513,-0.8495,0.0405,-0.1737,27.15,-6.1,0.02,
36819,1661560814514,-0.6406,-0.231,-0.2675,26.26,-17.25,-1.63,
36820,1661560814514,-0.9145,-0.063,-0.1688,31.06,-16.32,-2.9,
36821,1661560814514,-0.8617,-0.1177,0.3102,31.27,-1.02,-5.09,
36822,1661560814515,-0.8842,-0.0322,-0.1615,29.38,-9.56,-0.44,
36823,1661560814515,-0.8803,-0.0191,0.0704,24.07,-7.37,-2.64,
36824,1661560814516,-1.017,-0.0728,0.2765,26.46,-13.88,0.29,
36825,1661560814516,-0.9311,0.1553,-0.1371,32.57,-10.33,1.12,
36826,1661560814517,-0.9994,-0.2778,0.0851,29.68,-9.23,4.95,
36827,1661560814518,-1.122,-0.1421,0.4152,25.96,4.4,-1.81,
36828,1661560814518,-0.9897,0.2881,0.1764,25.96,-10.33,0.11,
36829,1661560814519,-0.9584,-0.2407,-0.6039,25.06,-16.25,-2.9,
36830,1661560814519,-1.0683,0.0849,0.358,28.77,-6.85,1.38,
36831,1661560814520,-1.1064,-0.1333,0.4884,25.36,-7.78,-3.54,
36832,1661560814520,-0.9736,0.0747,-0.2636,20.57,-15.82,-3.54,
36833,1661560814521,-1.0737,-0.1157,0.2296,22.07,-15.15,-3.54,
36834,1661560814521,-1.1508,-0.1055,0.7257,25.17,-7.44,-3.81,
36835,1661560814522,-1.1991,0.0093,0.3478,24.16,-10.24,-4.18,
36836,1661560814522,-1.0746,-0.2412,-0.0521,19.26,4.99,-3.45,
36837,1661560814522,-1.1205,-0.1524,0.4147,17.87,1.01,-5.09,
36838,1661560814522,-1.1694,-0.0186,0.1774,15.57,-6.6,-2.27,
36839,1661560814523,-1.0868,-0.2891,-0.2382,15.08,-19.54,-1.9,
36840,1661560814523,-1.3031,0.1235,0.401,18.59,5.74,-3.54,
36841,1661560814524,-1.1381,-0.1885,0.235,19.67,-1.35,0.66,
36842,1661560814524,-1.3095,-0.1235,-0.0072,17.98,-7.53,2.66,
36843,1661560814524,-1.2377,0.1504,0.5987,13.07,1.01,2.93,
36844,1661560814525,-1.1728,-0.0518,0.3629,13.48,-8.21,2.02,
36845,1661560814526,-1.1767,0.3296,0.2945,15.67,3.38,2.2,
36846,1661560814526,-1.1777,0.0264,0.526,17.87,7.77,0.11,
36847,1661560814526,-1.2299,0.04,0.5558,15.57,16.41,1.02,
36848,1661560814528,-1.1508,0.477,0.4215,18.16,17.0,2.47,
36849,1661560814528,-1.1581,0.1548,0.0607,15.67,10.32,0.75,
36850,1661560814528,-1.0947,0.4849,0.2272,13.37,10.15,-5.83,
36851,1661560814529,-1.1371,0.4375,0.2828,14.07,2.7,-1.63,
36852,1661560814529,-1.0615,0.1758,-0.1005,14.77,-3.05,0.75,
36853,1661560814529,-1.0302,0.56,0.0148,19.26,5.83,-0.26,
36854,1661560814530,-0.9999,0.3364,0.3229,15.48,10.99,-3.9,
36855,1661560814530,-0.9682,0.458,0.0323,14.36,7.95,-7.18,
36856,1661560814530,-0.9687,0.4385,-0.1005,15.19,0.67,-8.65,
36857,1661560814531,-0.9418,0.2759,0.2735,20.07,3.88,-7.18,
36858,1661560814531,-0.9252,0.3945,0.1158,22.16,2.7,-3.54,
36859,1661560814532,-0.8793,0.1587,-0.1542,22.86,2.78,-0.99,
36860,1661560814532,-0.9047,0.2827,0.233,20.97,8.12,-4.64,
36861,1661560814533,-0.9926,0.4697,0.3194,21.96,9.8,-3.26,
36862,1661560814533,-0.8027,0.1684,-0.1171,20.86,2.28,-4.64,
36863,1661560814534,-0.8803,0.209,-0.1205,21.06,0.58,-0.81,
36864,1661560814535,-0.9428,0.166,0.4191,25.36,1.1,0.57,
36865,1661560814535,-0.9072,0.1909,0.0773,28.06,-1.95,2.47,
36866,1661560814536,-0.7187,0.3506,-0.0072,29.27,4.9,-0.9,
36867,1661560814536,-0.6132,0.1968,0.2911,23.96,12.59,1.93,
36868,1661560814537,-0.852,0.3359,0.086,25.06,12.94,-3.08,
36869,1661560814537,-0.7538,0.0215,-0.4149,27.06,-2.79,1.56,
36870,1661560814537,-0.7729,0.2651,0.4498,25.76,5.92,3.12,
36871,1661560814538,-0.7573,0.7383,0.5987,29.48,11.16,-6.47,
36872,1661560814538,-0.5746,0.1831,-0.8627,33.76,-6.18,-2.45,
36873,1661560814539,-0.6889,0.0517,-0.6732,27.27,-7.37,-5.92,
36874,1661560814539,-0.8583,0.4785,0.6818,24.86,-5.75,-8.47,
36875,1661560814539,-0.8256,0.1357,-0.433,29.16,-15.56,-5.46,
36876,1661560814539,-0.6308,0.1059,-0.7553,32.76,-13.96,-3.63,
36877,1661560814540,-0.8378,0.1055,0.7433,26.58,-2.21,-2.45,
36878,1661560814540,-0.9296,0.2075,0.6984,28.86,-3.22,-5.09,
36879,1661560814541,-0.8871,-0.0078,-0.621,33.05,-18.52,-4.45,
36880,1661560814541,-0.934,-0.418,0.0255,32.18,-3.14,-3.81,
36881,1661560814542,-1.0512,0.1743,0.7374,28.57,-6.51,-3.17,
36882,1661560814542,-0.9394,-0.3262,-0.3764,30.96,-6.27,-0.17,
36883,1661560814543,-0.9775,-0.3389,-0.0912,27.27,-10.4,-1.17,
36884,1661560814543,-1.0571,-0.0166,0.6871,23.17,-11.17,0.75,
36885,1661560814544,-0.9452,-0.3252,-0.286,29.65,-24.96,2.38,
36886,1661560814544,-1.0937,-0.3071,-0.3656,30.66,-11.59,5.04,
36887,1661560814545,-1.0766,-0.3706,0.5992,24.57,-6.6,7.22,
36888,1661560814545,-1.2504,-0.1074,0.3614,18.97,-17.85,5.11,
36889,1661560814546,-1.0361,-0.0659,0.0636,19.76,-15.56,2.84,
36890,1661560814546,-1.186,-0.3027,0.3248,21.47,-7.11,-0.35,
36891,1661560814547,-1.1152,0.1343,0.1778,22.37,-4.91,0.2,
36892,1661560814548,-1.1562,-0.0996,0.1959,21.69,-3.81,6.21,
36893,1661560814548,-1.1684,-0.0801,0.4249,18.07,0.51,-0.07,
36894,1661560814549,-1.1518,0.2612,0.0563,15.77,-11.59,1.38,
36895,1661560814549,-1.1391,-0.0723,-0.2714,14.88,-12.19,0.84,
36896,1661560814549,-1.2231,0.2881,0.5211,15.26,-1.19,1.38,
36897,1661560814551,-1.122,0.0806,0.0992,17.67,-7.53,-1.63,
36898,1661560814551,-1.2656,0.2251,-0.0682,17.17,-6.1,-2.64,
36899,1661560814551,-1.3022,0.2925,0.3912,19.76,7.77,-3.35,
36900,1661560814551,-1.2753,0.1196,0.8307,18.97,9.39,-5.19,
36901,1661560814552,-1.143,0.1245,-0.0819,17.26,1.77,-5.73,
36902,1661560814552,-1.1357,0.0991,0.2999,13.16,11.75,-4.0,
36903,1661560814553,-1.1703,0.083,0.7179,12.67,14.62,-2.55,
36904,1661560814553,-1.2294,0.1929,0.3404,15.67,4.31,-2.99,
