srNo,timestamp,ax,ay,az,gx,gy,gz,temp
0,1661557318201,-0.9101,0.2899,-0.0291,-16.04,3.53,1.52,
1,1661557318202,-0.8891,0.4257,0.0979,-14.24,13.67,-2.94,
2,1661557318202,-0.9154,0.4794,0.1531,-16.25,5.63,-2.86,
3,1661557318202,-0.8515,0.3954,-0.0584,-14.54,-1.98,-2.15,
4,1661557318202,-0.8305,0.4159,0.0007,-13.64,0.98,-1.51,
5,1661557318202,-0.8569,0.4691,0.0486,-14.14,0.14,-0.5,
6,1661557318202,-0.8051,0.2811,-0.0042,-12.36,4.37,-5.34,
7,1661557318202,-0.7172,0.3305,0.0993,-9.64,9.11,-5.14,
8,1661557318202,-0.7504,0.268,0.0222,-9.16,5.72,-3.69,
9,1661557318202,-0.7021,0.2899,0.0163,-9.84,6.15,-1.76,
10,1661557318202,-0.7074,0.1552,0.0022,-5.54,9.19,-1.23,
11,1661557318202,-0.7211,0.0561,0.0076,-7.14,12.57,0.71,
12,1661557318202,-0.7636,0.1107,-0.1082,-8.35,8.01,-0.41,
13,1661557318202,-0.7094,0.0678,-0.0935,-4.65,4.2,-2.41,
14,1661557318202,-0.8212,-0.0069,0.0637,-6.55,1.24,1.26,
15,1661557318202,-0.8163,-0.0123,-0.0398,-3.16,4.53,3.97,
16,1661557318202,-0.5976,-0.0416,-0.1594,-1.57,-3.08,8.26,
17,1661557318202,-0.5268,0.0155,0.1062,-4.15,6.9,6.7,
18,1661557318202,-0.8144,-0.1192,0.0559,-3.74,14.18,4.61,
19,1661557318202,-0.7782,-0.2413,-0.2034,2.04,19.26,8.08,
20,1661557318202,-0.8031,0.016,-0.072,-1.85,8.18,3.53,
21,1661557318203,-1.0531,0.0683,0.1789,-9.45,-7.22,5.8,
22,1661557318203,-0.7861,-0.0836,-0.1209,-8.96,-10.77,4.8,
23,1661557318203,-0.8881,-0.026,-0.0007,-4.24,-3.49,2.87,
24,1661557318203,-0.8901,0.1508,0.1482,3.16,8.59,-0.86,
25,1661557318203,-0.8993,-0.1481,-0.0979,1.14,10.21,1.06,
26,1661557318203,-0.9716,-0.067,0.074,-7.26,14.94,-0.68,
27,1661557318203,-1.1488,0.1029,0.2117,-11.96,-0.53,-1.14,
28,1661557318203,-1.039,-0.1593,-0.1619,-10.16,-5.35,2.6,
29,1661557318203,-1.0971,-0.0611,0.0964,-7.46,4.03,0.51,
30,1661557318203,-1.1249,0.0023,0.2414,-5.36,13.51,0.14,
31,1661557318204,-1.1786,-0.1095,0.0832,-6.15,5.56,-1.22,
32,1661557318204,-1.2089,-0.1378,0.0906,-9.46,4.37,-1.23,
33,1661557318204,-1.2079,-0.169,0.3874,-12.86,0.05,-3.69,
34,1661557318204,-1.1864,-0.1222,0.0266,-15.35,-7.05,-3.96,
35,1661557318204,-1.1083,-0.1593,0.053,-15.26,-6.28,-2.95,
36,1661557318204,-1.4154,-0.2774,0.4475,-13.06,8.94,4.25,
37,1661557318205,-1.2738,-0.169,0.2864,-14.45,1.83,1.06,
38,1661557318205,-1.248,-0.0553,-0.0183,-18.54,-6.04,2.89,
39,1661557318205,-1.3617,-0.1759,0.428,-18.84,-4.76,7.45,
40,1661557318205,-1.1454,-0.1593,0.0207,-21.55,-12.13,6.06,
41,1661557318205,-1.2109,0.0258,0.1672,-24.25,-3.08,5.35,
42,1661557318205,-1.2865,0.0531,0.2634,-23.74,-5.35,5.44,
43,1661557318205,-1.2123,0.0727,0.2243,-17.55,2.93,0.88,
44,1661557318205,-1.1957,0.1718,0.2463,-19.35,1.41,2.23,
45,1661557318205,-1.2353,0.3197,0.2224,-24.75,-2.99,-6.33,
46,1661557318205,-1.1254,0.2958,0.3249,-23.65,1.41,-3.5,
47,1661557318205,-1.0981,0.309,0.1941,-23.54,-1.05,-5.15,
48,1661557318205,-1.0033,0.3427,0.0124,-23.76,-1.3,-4.24,
49,1661557318205,-1.141,0.3324,0.1306,-20.45,5.13,-8.52,
50,1661557318206,-1.1044,0.3593,0.3093,-19.44,7.16,-4.86,
51,1661557318206,-1.0414,0.4066,0.0442,-19.84,-0.7,-5.78,
52,1661557318206,-1.0004,0.5131,0.0085,-22.66,-4.68,-8.8,
53,1661557318206,-0.9804,0.1889,0.091,-21.04,1.41,-5.32,
54,1661557318206,-0.8442,0.1469,-0.031,-17.14,4.53,-7.24,
55,1661557318206,-0.9013,0.2631,0.0012,-17.15,-0.2,-5.34,
56,1661557318206,-0.9799,0.2519,0.1672,-15.96,-2.32,-8.25,
57,1661557318206,-0.9423,0.1181,0.1716,-13.96,-6.04,-0.59,
58,1661557318206,-0.7636,0.0541,0.0539,-13.95,3.53,-2.22,
59,1661557318206,-0.9335,0.1107,0.156,-15.26,3.53,-1.69,
60,1661557318206,-0.7929,0.0878,0.2136,-15.26,8.42,-3.5,
61,1661557318206,-0.8139,0.101,0.0823,-13.46,1.33,-2.33,
62,1661557318206,-0.746,0.1068,-0.0115,-9.54,-0.36,-2.04,
63,1661557318206,-0.7499,0.0951,0.0007,-7.16,5.8,-3.14,
64,1661557318206,-0.6703,0.2147,0.1516,-7.14,17.47,3.9,
65,1661557318206,-0.745,0.1811,-0.262,-9.16,4.7,1.42,
66,1661557318207,-0.6996,0.2499,-0.2805,-12.44,-2.06,1.7,
67,1661557318207,-0.7011,0.2714,0.1501,-4.87,-4.18,3.24,
68,1661557318207,-0.7699,0.182,0.0959,-0.06,1.66,-0.86,
69,1661557318207,-0.7353,0.2816,-0.3093,-1.95,-1.63,0.98,
70,1661557318207,-0.6982,0.3319,-0.1482,-3.27,11.05,-1.32,
71,1661557318208,-0.8056,0.1708,0.3191,-5.14,15.37,1.16,
72,1661557318208,-0.7885,0.1,-0.1853,-5.65,3.77,3.62,
73,1661557318208,-0.787,0.0819,-0.2815,-1.25,0.64,2.34,
74,1661557318208,-0.85,0.1825,0.1482,1.36,5.98,-0.12,
75,1661557318208,-0.9477,-0.0079,0.1814,3.43,8.01,1.59,
76,1661557318208,-0.8945,-0.1998,-0.2908,-0.46,2.76,-3.14,
77,1661557318208,-0.8593,-0.1471,-0.2249,-8.65,5.3,-0.68,
78,1661557318208,-0.8564,-0.1056,0.1365,-5.05,2.5,2.05,
79,1661557318208,-1.0307,-0.3282,0.0593,-2.84,-2.06,2.87,
80,1661557318208,-0.9472,-0.2564,-0.1038,-1.28,-4.68,3.79,
81,1661557318208,-1.1694,-0.3102,0.2375,-6.18,-0.53,3.61,
82,1661557318208,-1.0463,-0.2691,0.2815,-8.94,-0.7,0.6,
83,1661557318208,-1.0751,-0.2481,0.1745,-11.54,-2.39,1.44,
84,1661557318208,-1.1366,-0.2335,0.113,-11.14,1.83,1.79,
85,1661557318208,-1.1044,-0.1852,0.1462,-9.96,2.93,1.96,
86,1661557318208,-1.1762,-0.0973,0.3118,-6.74,6.99,7.07,
87,1661557318209,-1.1786,-0.1168,-0.0618,-10.16,-4.18,3.88,
88,1661557318209,-1.1571,0.0829,0.0852,-15.24,0.73,4.99,
89,1661557318209,-1.2016,0.1361,0.2151,-13.76,4.53,5.35,
90,1661557318209,-1.2519,0.0331,-0.0545,-15.24,0.05,1.42,
91,1661557318209,-1.2079,0.1347,-0.0921,-16.14,-2.65,1.59,
92,1661557318209,-1.2948,0.1498,0.2605,-19.24,-6.04,0.89,
93,1661557318209,-1.2338,0.0658,0.2522,-18.34,-11.27,0.62,
94,1661557318209,-1.3505,0.1371,0.1482,-18.34,-7.55,-3.49,
95,1661557318209,-1.2548,0.1879,0.22,-20.05,0.47,-2.86,
96,1661557318209,-1.2445,0.1474,0.302,-23.15,3.01,-7.88,
97,1661557318209,-1.3212,0.0746,0.4309,-23.54,8.26,-0.68,
98,1661557318209,-1.2612,-0.0377,0.198,-20.74,0.73,-4.95,
99,1661557318209,-1.1943,0.1454,0.1423,-20.86,-4.01,-3.05,
100,1661557318209,-1.2162,0.0014,0.3523,-20.45,-0.2,-8.43,
101,1661557318209,-1.2704,-0.0738,0.363,-24.35,2.43,-0.96,
102,1661557318210,-1.1425,-0.0387,0.0442,-25.33,1.41,-4.15,
103,1661557318210,-1.1137,0.0243,0.094,-25.54,-0.53,-0.39,
104,1661557318210,-1.079,0.0995,0.2776,-21.84,-5.61,1.06,
105,1661557318210,-1.1215,0.0917,0.1794,-20.84,-6.54,-4.15,
106,1661557318210,-1.0234,0.182,0.1296,-24.75,-3.42,-1.14,
107,1661557318210,-0.9975,0.33,0.1047,-22.05,-0.7,-3.87,
108,1661557318210,-0.9848,0.3183,0.2468,-20.93,13.34,1.16,
109,1661557318210,-0.8935,0.3021,0.1409,-17.64,-0.87,0.05,
110,1661557318210,-0.8495,0.3192,-0.0891,-17.24,0.64,-2.76,
111,1661557318210,-0.9115,0.4936,0.1892,-15.85,4.29,-4.6,
112,1661557318210,-0.8324,0.4125,-0.0925,-12.95,2.0,-3.32,
113,1661557318210,-0.7738,0.3783,-0.1038,-15.66,2.09,-4.15,
114,1661557318210,-0.8339,0.4623,0.0251,-14.34,2.5,-5.14,
115,1661557318211,-0.7675,0.3515,-0.0169,-12.86,3.43,-3.96,
116,1661557318211,-0.7851,0.2816,0.0422,-9.74,1.57,-3.76,
117,1661557318211,-0.7714,0.3173,0.1203,-11.44,5.72,0.23,
118,1661557318211,-0.7089,0.2641,0.0466,-10.76,5.3,2.69,
119,1661557318211,-0.6903,0.1376,-0.0042,-10.13,5.46,3.16,
120,1661557318211,-0.6894,0.0487,0.0261,-7.26,8.42,3.79,
121,1661557318211,-0.7934,0.015,-0.0471,-6.45,5.8,-1.41,
122,1661557318211,-0.7402,0.0775,-0.0427,-4.35,8.85,1.7,
123,1661557318211,-0.831,-0.0123,0.0535,-2.76,7.92,2.32,
124,1661557318211,-0.892,-0.0465,0.0095,-5.65,5.39,-0.48,
125,1661557318211,-0.6039,-0.0123,-0.1096,-6.96,-4.85,1.78,
126,1661557318211,-0.9067,-0.0895,-0.093,-4.76,-13.3,4.06,
127,1661557318212,-0.7787,-0.0973,0.0046,-3.97,3.01,8.08,
128,1661557318212,-0.7719,-0.2184,-0.2088,0.05,2.0,2.42,
129,1661557318212,-0.8276,0.0326,-0.0125,-1.07,14.18,0.51,
130,1661557318212,-0.8715,0.1977,0.2063,-5.25,18.07,-0.04,
131,1661557318212,-0.9145,-0.0987,-0.0076,-8.25,5.46,1.24,
132,1661557318212,-0.8168,-0.0543,-0.2376,-7.48,-11.72,3.61,
133,1661557318212,-0.9028,0.1527,0.155,-3.46,-0.79,3.88,
134,1661557318212,-0.9096,-0.1617,-0.0579,0.64,-5.28,-0.32,
135,1661557318213,-0.9921,-0.0362,0.134,-6.06,10.62,-2.15,
136,1661557318213,-1.165,0.1283,0.2737,-7.75,6.15,0.78,
137,1661557318213,-1.0727,0.0634,0.092,-7.26,4.46,3.61,
138,1661557318213,-0.9838,-0.1144,-0.0701,-8.36,4.03,0.23,
139,1661557318213,-1.0981,-0.0294,0.2219,-7.86,2.5,1.24,
140,1661557318213,-1.164,-0.1109,0.0491,-9.26,-4.85,4.34,
141,1661557318213,-1.2284,-0.15,-0.0203,-11.75,-5.95,2.43,
142,1661557318213,-1.3041,-0.1441,0.2756,-10.54,3.94,3.16,
143,1661557318213,-1.2807,-0.129,0.1931,-13.75,6.56,-0.85,
144,1661557318213,-1.1904,-0.1124,-0.0701,-16.85,-1.63,2.87,
145,1661557318213,-1.2343,-0.2145,0.3074,-15.26,-6.12,-0.96,
146,1661557318213,-1.2978,-0.1661,0.3132,-12.45,-8.41,0.14,
147,1661557318213,-1.2319,-0.1002,-0.0598,-12.54,-6.97,-2.94,
148,1661557318213,-1.3632,-0.1783,0.4695,-20.45,3.1,-2.41,
149,1661557318213,-1.162,-0.1549,0.1081,-23.74,-9.25,0.62,
150,1661557318213,-1.331,-0.0572,-0.0183,-23.45,-8.24,4.43,
151,1661557318213,-1.2773,0.1337,0.3518,-22.16,-4.85,-3.69,
152,1661557318213,-1.33,0.0678,0.2624,-23.76,1.33,0.6,
153,1661557318213,-1.206,0.1718,0.2156,-17.84,-0.03,-3.03,
154,1661557318213,-1.2211,0.3246,0.1789,-21.64,-6.12,-1.4,
155,1661557318213,-1.1244,0.2592,0.321,-24.03,2.6,-2.57,
156,1661557318214,-1.2113,0.2811,0.3054,-26.15,2.09,2.32,
157,1661557318214,-1.0375,0.3666,0.0544,-25.57,-1.23,-1.96,
158,1661557318214,-1.1288,0.3744,0.1047,-22.35,-4.68,0.23,
159,1661557318214,-1.1537,0.4096,0.3933,-20.54,-0.12,-0.13,
160,1661557318214,-1.0258,0.3876,0.0867,-17.44,1.33,-2.66,
161,1661557318214,-0.9833,0.4901,0.009,-20.74,3.27,-1.6,
162,1661557318214,-0.9545,0.3622,0.1047,-22.23,4.63,-2.85,
163,1661557318214,-0.9237,0.1,0.0618,-19.85,4.96,2.32,
164,1661557318214,-0.7983,0.1996,-0.1311,-18.04,0.47,-3.6,
165,1661557318214,-0.9179,0.2582,0.0442,-13.66,8.52,-2.86,
166,1661557318214,-0.9521,0.1244,0.1116,-13.85,1.24,-1.14,
167,1661557318214,-0.7538,0.0702,-0.0027,-17.64,-0.53,-5.69,
168,1661557318214,-0.8945,0.0663,0.0476,-17.26,-7.98,-2.95,
169,1661557318214,-0.7406,0.078,0.1457,-11.66,4.7,-2.59,
170,1661557318214,-0.7983,0.0668,0.1951,-10.86,8.85,7.99,
171,1661557318214,-0.7607,0.0824,0.073,-10.96,7.92,1.68,
172,1661557318215,-0.7509,0.0595,0.0696,-13.85,1.41,8.99,
173,1661557318215,-0.7099,0.1991,0.2956,-12.34,2.84,6.25,
174,1661557318216,-0.7011,0.2113,0.1164,-10.15,8.85,6.34,
175,1661557318216,-0.7089,0.1664,-0.2385,-3.66,15.44,4.16,
176,1661557318216,-0.6972,0.2411,0.0012,-5.36,13.25,3.79,
177,1661557318217,-0.7758,0.2177,0.053,-8.65,5.22,6.25,
178,1661557318217,-0.7079,0.2006,-0.0354,-6.24,0.98,6.61,
179,1661557318218,-0.683,0.3451,-0.3772,-5.05,-10.68,-0.03,
180,1661557318218,-0.7636,0.1981,0.0422,-3.66,4.12,0.88,
181,1661557318219,-0.7572,0.1303,0.0984,-2.04,8.59,-2.41,
182,1661557318219,-0.7494,0.122,-0.3313,0.12,8.93,3.61,
183,1661557318220,-0.766,0.1225,-0.2908,-1.16,10.97,-1.41,
184,1661557318220,-0.9237,0.1737,0.2761,-0.95,10.79,0.07,
185,1661557318220,-0.8422,-0.1036,-0.0027,-2.96,5.3,0.23,
186,1661557318221,-0.8324,-0.1647,-0.2849,-3.46,1.16,-1.05,
187,1661557318221,-0.851,-0.0963,0.1213,-3.54,4.96,-0.67,
188,1661557318222,-0.9784,-0.2062,0.1931,-2.35,3.1,0.33,
189,1661557318222,-0.9487,-0.3248,-0.0579,-2.24,0.64,1.35,
190,1661557318223,-1.0429,-0.2843,-0.0491,-5.45,-5.02,6.7,
191,1661557318223,-1.0995,-0.3409,0.3201,-8.94,0.73,8.18,
192,1661557318224,-1.0551,-0.3004,0.1482,-9.55,-3.75,9.89,
193,1661557318224,-1.1396,-0.3019,0.0867,-9.95,3.1,9.63,
194,1661557318225,-1.0273,-0.2804,0.1033,-9.86,-1.89,6.43,
195,1661557318225,-1.2695,-0.1656,0.2615,-10.25,6.99,6.89,
196,1661557318226,-1.2167,-0.0646,0.2341,-11.55,4.96,2.05,
197,1661557318226,-1.2631,-0.0196,-0.159,-14.43,-3.25,5.27,
198,1661557318227,-1.1913,0.1498,0.2331,-13.14,-0.53,1.96,
199,1661557318227,-1.2719,0.0863,0.0452,-12.95,-6.79,0.6,
200,1661557318227,-1.1781,0.0443,-0.0891,-15.55,-5.19,3.24,
201,1661557318228,-1.287,0.1913,0.0701,-14.76,-6.88,0.51,
202,1661557318228,-1.3388,0.1591,0.3616,-17.26,-5.87,0.78,
203,1661557318229,-1.3427,0.1518,0.1716,-18.16,-6.21,1.96,
204,1661557318229,-1.2489,0.2191,0.2507,-19.36,0.14,1.42,
205,1661557318230,-1.2436,0.1386,0.2566,-20.34,-0.53,-2.13,
206,1661557318230,-1.2187,0.1151,0.3713,-19.45,6.73,-1.87,
207,1661557318231,-1.226,-0.0372,0.3537,-20.43,5.98,-1.12,
208,1661557318231,-1.2153,0.0272,0.0754,-22.23,0.98,-0.85,
209,1661557318231,-1.1493,0.1269,0.261,-19.24,3.86,-4.77,
210,1661557318232,-1.2519,-0.0987,0.2995,-19.76,3.94,0.69,
211,1661557318232,-1.2392,-0.1212,0.1213,-23.54,-8.24,-7.24,
212,1661557318233,-1.0517,-0.0646,-0.0276,-25.63,-9.08,-1.69,
213,1661557318233,-1.1542,0.0126,0.2488,-21.33,-6.28,-4.13,
214,1661557318234,-1.0019,0.1239,0.2673,-19.15,-2.56,1.96,
215,1661557318234,-1.1049,0.1029,0.176,-21.33,-0.87,0.98,
216,1661557318235,-0.9023,0.1928,0.1306,-24.64,-3.75,-0.03,
217,1661557318235,-0.9945,0.331,0.2868,-25.76,-3.08,0.42,
218,1661557318236,-0.9189,0.3368,0.1423,-18.94,3.86,-0.57,
219,1661557318236,-0.8739,0.2992,-0.0852,-13.95,4.46,-5.7,
220,1661557318236,-0.8847,0.4105,0.072,-14.86,13.84,-4.6,
221,1661557318237,-0.8642,0.4506,0.0945,-18.43,3.43,-3.03,
222,1661557318238,-0.789,0.3246,-0.2351,-13.06,-1.3,-3.6,
223,1661557318238,-0.8569,0.4008,0.0017,-11.44,2.93,1.26,
224,1661557318239,-0.7885,0.3935,0.1057,-12.56,-0.03,-4.69,
225,1661557318239,-0.809,0.287,0.0705,-16.85,1.5,-4.24,
226,1661557318239,-0.7035,0.2777,0.0393,-10.65,5.3,-2.5,
227,1661557318240,-0.7592,0.2245,0.0945,-10.24,7.25,-5.24,
228,1661557318240,-0.665,0.2001,0.1057,-7.74,12.91,-3.86,
229,1661557318241,-0.7182,0.0365,0.0071,-6.16,10.38,-5.61,
230,1661557318241,-0.8012,-0.0172,-0.0398,-4.85,11.22,-8.88,
231,1661557318242,-0.7543,0.1019,-0.0437,-5.54,5.46,-3.41,
232,1661557318242,-0.7113,0.0321,0.0139,-6.87,5.3,-4.33,
233,1661557318243,-0.8774,-0.0587,-0.0115,-3.27,1.5,-0.59,
234,1661557318243,-0.6381,-0.0528,-0.0979,-4.35,13.17,-0.03,
235,1661557318243,-0.9296,-0.0973,-0.052,-7.45,3.53,3.62,
236,1661557318244,-0.789,-0.1139,0.0349,-2.56,2.84,1.33,
237,1661557318244,-0.831,-0.1617,-0.0711,-6.16,-28.53,5.42,
238,1661557318245,-0.788,-0.067,-0.0613,-7.17,-1.55,3.15,
239,1661557318245,-0.8652,0.2035,0.2322,-1.27,19.59,0.6,
240,1661557318246,-0.9535,-0.0992,-0.0491,-1.54,22.89,3.16,
241,1661557318246,-0.7973,-0.0538,-0.365,-4.56,2.5,1.59,
242,1661557318247,-0.8862,0.1552,0.1824,-4.35,12.15,6.35,
243,1661557318247,-0.9062,-0.1593,-0.01,-4.96,-10.18,7.25,
244,1661557318248,-1.0614,-0.1192,-0.1936,-4.76,-8.65,1.96,
245,1661557318248,-1.0326,0.0141,0.1745,-7.55,3.53,-4.88,
246,1661557318249,-1.0717,0.0473,0.1101,-8.65,6.9,3.33,
247,1661557318249,-0.9877,-0.1778,-0.0935,-6.24,6.49,-0.76,
248,1661557318250,-1.1459,-0.0528,0.1975,-8.15,5.63,-0.39,
249,1661557318250,-1.1454,0.0297,0.3298,-8.96,1.57,-2.15,
250,1661557318250,-1.2333,-0.1661,0.0071,-11.86,-6.28,-1.51,
251,1661557318251,-1.2831,-0.1656,0.2141,-12.15,-0.96,1.07,
252,1661557318251,-1.2441,-0.1095,0.1897,-11.15,6.23,1.5,
253,1661557318252,-1.1899,-0.0958,-0.0447,-15.44,6.82,-2.94,
254,1661557318252,-1.2216,-0.1915,0.2868,-14.43,-1.55,2.07,
255,1661557318253,-1.3344,-0.1515,0.258,-12.95,-10.34,2.78,
256,1661557318253,-1.2289,-0.089,-0.0823,-14.43,-16.19,3.99,
257,1661557318254,-1.3559,-0.1642,0.5012,-16.86,3.27,1.87,
258,1661557318254,-1.267,-0.1705,0.4343,-20.84,-3.42,2.51,
259,1661557318255,-1.289,-0.0523,-0.0676,-23.96,-7.14,-1.69,
260,1661557318255,-1.246,0.1601,0.3352,-22.55,-5.87,0.97,
261,1661557318256,-1.3261,0.0609,0.2888,-21.55,-9.58,0.88,
262,1661557318256,-1.1864,0.1649,0.1848,-21.84,-0.62,-2.39,
263,1661557318256,-1.2836,0.31,0.2243,-21.44,-1.13,-3.95,
264,1661557318257,-1.1298,0.2343,0.3166,-22.95,3.77,-1.69,
265,1661557318257,-1.2021,0.265,0.259,-24.14,1.41,-5.79,
266,1661557318258,-1.0634,0.3515,0.0632,-23.25,-0.03,-3.5,
267,1661557318258,-1.1332,0.3554,0.1355,-18.74,-5.52,-8.8,
268,1661557318259,-1.1303,0.3583,0.3625,-22.25,0.81,-4.33,
269,1661557318259,-1.0448,0.3563,0.051,-20.84,-4.51,-8.51,
270,1661557318260,-0.9916,0.496,0.0364,-22.84,8.18,-6.69,
271,1661557318260,-0.9843,0.3954,0.1316,-19.04,2.76,-8.05,
272,1661557318261,-0.9721,0.1327,0.0852,-19.33,-0.46,-3.78,
273,1661557318261,-0.8373,0.2343,-0.1262,-16.75,-9.41,-3.32,
274,1661557318261,-0.9213,0.265,0.1238,-13.24,7.08,-6.31,
275,1661557318262,-0.9667,0.1449,0.1438,-8.16,5.98,-5.24,
276,1661557318263,-0.767,0.1107,-0.0252,-13.14,2.34,-4.31,
277,1661557318263,-0.8505,0.0927,0.0574,-16.25,-5.35,-5.52,
278,1661557318264,-0.748,0.0844,0.2292,-13.06,-1.22,-5.7,
279,1661557318264,-0.7758,0.0751,0.154,-10.64,4.7,-0.03,
280,1661557318264,-0.7685,0.1093,0.0095,-9.64,8.59,-2.13,
281,1661557318265,-0.7157,0.0697,-0.0042,-12.45,3.6,1.42,
282,1661557318265,-0.7196,0.1752,0.1599,-12.88,4.87,3.88,
283,1661557318266,-0.6855,0.2084,0.074,-11.64,6.82,3.71,
284,1661557318266,-0.6903,0.1654,-0.3162,-6.15,11.14,1.61,
285,1661557318267,-0.7011,0.2079,-0.0965,-2.75,12.65,1.16,
286,1661557318267,-0.7568,0.1928,0.0705,-6.96,5.13,2.14,
287,1661557318268,-0.7402,0.2562,-0.1746,-6.45,-1.46,4.8,
288,1661557318268,-0.7143,0.2963,-0.2976,-6.15,-8.24,2.98,
289,1661557318268,-0.7509,0.1801,-0.0032,-8.25,0.23,2.97,
290,1661557318269,-0.7987,0.1586,0.2024,-6.24,8.94,0.16,
291,1661557318269,-0.8241,0.1376,-0.2034,-0.06,12.91,0.69,
292,1661557318270,-0.7944,0.1205,-0.0286,-0.37,14.44,-0.68,
293,1661557318270,-0.872,0.1356,0.154,-2.26,11.14,-2.15,
294,1661557318271,-0.8515,-0.11,0.0027,-2.85,5.3,2.51,
295,1661557318271,-0.8837,-0.1622,-0.2449,-3.34,-1.22,1.61,
296,1661557318272,-0.8617,-0.0777,0.0491,-4.87,5.39,1.33,
297,1661557318272,-1.0522,-0.315,0.0613,-2.65,1.57,-4.88,
298,1661557318272,-0.9545,-0.3238,0.0071,-5.16,-0.7,-1.96,
299,1661557318273,-0.9965,-0.2965,0.0285,-4.15,-6.79,-0.94,
300,1661557318273,-1.0922,-0.3053,0.3293,-8.94,-1.39,-0.94,
301,1661557318274,-1.0336,-0.2364,0.2229,-10.54,-1.13,1.5,
302,1661557318274,-1.1308,-0.2818,0.178,-11.25,8.52,0.89,
303,1661557318275,-1.0019,-0.2374,0.1535,-12.15,1.57,2.32,
304,1661557318275,-1.1923,-0.0699,0.3157,-12.24,8.94,-0.94,
305,1661557318276,-1.2035,-0.0245,0.2512,-8.96,-1.63,0.69,
306,1661557318276,-1.245,-0.0445,-0.1433,-13.95,-2.73,0.34,
307,1661557318277,-1.182,0.141,0.1404,-12.54,3.6,0.34,
308,1661557318277,-1.2636,0.0966,0.0217,-11.15,-4.09,-3.6,
309,1661557318277,-1.1528,0.0883,-0.1189,-16.05,-4.59,-2.5,
310,1661557318278,-1.2807,0.121,0.2019,-19.24,-3.92,-2.22,
311,1661557318278,-1.2367,0.0692,0.303,-18.54,-6.28,-0.76,
312,1661557318279,-1.3261,0.1391,0.2395,-17.75,-7.64,-1.22,
313,1661557318279,-1.2489,0.2103,0.2649,-19.55,-0.53,-1.6,
314,1661557318280,-1.2485,0.1474,0.2312,-22.74,0.73,-0.67,
315,1661557318280,-1.3022,0.1063,0.3952,-20.54,8.18,0.8,
316,1661557318281,-1.2397,-0.0445,0.2898,-19.04,1.74,-4.04,
317,1661557318281,-1.1908,0.1112,0.0749,-20.75,-0.2,-3.87,
318,1661557318281,-1.1581,0.0619,0.3103,-21.76,0.73,-0.68,
319,1661557318282,-1.2641,-0.0304,0.3611,-22.93,-0.79,-5.88,
320,1661557318282,-1.2021,-0.0611,0.0857,-21.53,-2.91,0.25,
321,1661557318282,-1.0654,-0.003,0.0525,-22.16,0.4,1.06,
322,1661557318284,-1.1078,0.1073,0.2937,-22.86,0.05,-2.59,
323,1661557318284,-1.1108,0.0824,0.1907,-24.44,-1.39,1.59,
324,1661557318285,-1.0331,0.1527,0.1155,-24.55,-4.59,-0.41,
325,1661557318285,-0.9496,0.2191,0.0881,-24.44,-9.5,-1.41,
326,1661557318285,-1.0439,0.3705,0.2258,-19.76,7.75,-1.41,
327,1661557318286,-0.9613,0.331,0.1702,-16.25,9.02,-0.59,
328,1661557318286,-0.8974,0.3559,-0.1082,-15.06,7.66,-3.69,
329,1661557318287,-0.893,0.5424,0.0906,-15.85,4.96,-4.6,
330,1661557318287,-0.8442,0.4354,-0.0188,-11.86,1.91,-7.61,
331,1661557318288,-0.7817,0.3256,-0.1297,-10.36,1.33,-3.05,
332,1661557318288,-0.8324,0.4066,-0.0335,-15.76,0.31,-3.23,
333,1661557318288,-0.8017,0.4188,0.0163,-13.46,0.4,-2.41,
334,1661557318289,-0.7812,0.2475,0.0246,-10.16,6.15,-6.51,
335,1661557318290,-0.7289,0.2738,0.029,-8.45,11.14,-4.42,
336,1661557318290,-0.7455,0.2519,0.0871,-9.46,12.24,-5.06,
337,1661557318291,-0.7138,0.1425,0.0295,-7.75,9.78,-6.51,
338,1661557318291,-0.705,0.0331,0.0051,-5.25,7.25,-3.4,
339,1661557318291,-0.7431,-0.0016,-0.0506,-5.97,2.84,-2.77,
340,1661557318292,-0.7211,0.0736,-0.0755,-7.75,1.74,-1.51,
341,1661557318292,-0.7714,-0.047,0.0461,-2.44,5.56,0.52,
342,1661557318293,-0.9018,-0.0436,-0.0203,-4.17,9.02,-3.96,
343,1661557318293,-0.6645,-0.0558,-0.0608,-3.66,0.23,-2.5,
344,1661557318294,-0.9745,-0.0875,-0.0408,-6.74,-19.74,-0.67,
345,1661557318294,-0.7831,-0.1139,0.0984,-5.95,6.82,6.8,
346,1661557318294,-0.8075,-0.2731,-0.3093,2.66,9.86,5.16,
347,1661557318297,-0.8959,0.0214,-0.0423,0.73,25.94,0.05,
348,1661557318297,-1.0365,0.1083,0.2659,-4.65,25.51,4.16,
349,1661557318297,-0.9736,-0.1202,0.0051,-8.56,8.01,2.97,
350,1661557318297,-0.7978,-0.0714,-0.2957,-6.74,-14.16,6.44,
351,1661557318297,-0.8886,0.1459,0.1633,-3.97,0.9,4.16,
352,1661557318297,-0.9076,-0.1612,-0.0227,0.73,-5.19,4.98,
353,1661557318298,-1.0033,-0.065,-0.0125,-4.35,3.36,6.26,
354,1661557318298,-1.0356,0.0092,0.1677,-7.08,1.74,-1.87,
355,1661557318298,-1.0732,0.0927,0.157,-9.96,4.96,2.14,
356,1661557318301,-0.9819,-0.1383,-0.1033,-8.54,3.43,-0.03,
357,1661557318301,-1.0976,-0.0621,0.1116,-5.34,5.46,0.71,
358,1661557318301,-1.1547,-0.0831,0.1023,-5.05,0.31,-1.95,
359,1661557318301,-1.1889,-0.172,0.0036,-8.56,-7.31,-0.32,
360,1661557318301,-1.2646,-0.1695,0.2048,-15.15,0.57,1.59,
361,1661557318301,-1.2392,-0.13,0.2585,-12.86,3.86,0.6,
362,1661557318302,-1.1874,-0.129,-0.0271,-10.96,2.34,-4.42,
363,1661557318302,-1.186,-0.2223,0.2009,-14.94,2.76,1.26,
364,1661557318303,-1.3612,-0.1876,0.3352,-16.97,-2.06,-1.69,
365,1661557318303,-1.205,-0.0987,-0.0701,-17.97,-14.75,1.42,
366,1661557318304,-1.3305,-0.1681,0.4275,-16.36,1.07,0.6,
367,1661557318304,-1.3202,-0.1515,0.4514,-20.55,-3.66,3.88,
368,1661557318305,-1.2558,-0.0397,-0.0803,-23.44,-6.62,2.71,
369,1661557318305,-1.2201,0.1659,0.2175,-21.65,-6.88,3.79,
370,1661557318306,-1.3407,0.0556,0.2883,-20.74,-8.74,3.35,
371,1661557318306,-1.205,0.1303,0.2156,-19.76,-2.39,4.98,
372,1661557318306,-1.2592,0.327,0.2082,-22.25,-2.91,0.97,
373,1661557318308,-1.1899,0.3456,0.2654,-23.54,4.37,2.14,
374,1661557318308,-1.2123,0.3197,0.3386,-24.54,2.43,-4.15,
375,1661557318308,-1.0717,0.3729,0.155,-23.35,2.6,-3.87,
376,1661557318308,-1.0849,0.3788,0.0964,-20.23,-0.46,-5.34,
377,1661557318309,-1.1171,0.3598,0.3811,-19.84,7.75,-7.06,
378,1661557318309,-1.0331,0.3578,0.1091,-20.66,-0.87,-5.79,
379,1661557318310,-0.9609,0.432,0.0002,-21.94,4.63,-6.51,
380,1661557318310,-0.9819,0.4208,0.0525,-16.54,3.69,-3.31,
381,1661557318311,-1.0121,0.1269,0.1042,-17.35,5.39,-7.06,
382,1661557318311,-0.8461,0.1928,-0.1023,-18.04,-6.38,-1.4,
383,1661557318311,-0.9047,0.2577,0.0466,-15.24,-2.56,-7.23,
384,1661557318312,-0.977,0.1239,0.1916,-14.43,3.6,-4.88,
385,1661557318312,-0.8852,0.058,0.0788,-14.43,5.56,-2.13,
386,1661557318313,-0.8036,0.036,0.0105,-16.04,0.23,-5.23,
387,1661557318313,-0.8183,0.0712,0.216,-15.24,-4.59,-5.59,
388,1661557318314,-0.8256,0.0687,0.2463,-12.65,-3.58,-0.32,
389,1661557318314,-0.8075,0.1073,0.0661,-6.87,8.68,1.24,
390,1661557318315,-0.7289,0.1054,0.0129,-9.95,9.02,0.25,
391,1661557318315,-0.8207,0.0839,0.1062,-13.46,6.23,-2.15,
392,1661557318315,-0.6625,0.2182,0.1565,-14.05,3.1,-0.22,
393,1661557318316,-0.686,0.1312,-0.3064,-10.06,0.05,-1.32,
394,1661557318317,-0.7113,0.2465,-0.1443,-0.37,12.57,-0.68,
395,1661557318317,-0.7709,0.2631,0.1575,-5.14,16.97,-1.41,
396,1661557318318,-0.726,0.2001,-0.1731,-11.05,7.59,-1.31,
397,1661557318318,-0.7167,0.2855,-0.3718,-6.33,-9.75,0.07,
398,1661557318318,-0.7514,0.2357,-0.0203,-5.16,0.31,1.42,
399,1661557318319,-0.8061,0.1552,0.2678,-4.35,4.87,3.06,
400,1661557318319,-0.8022,0.1132,-0.2781,0.34,6.49,0.69,
401,1661557318320,-0.7709,0.059,-0.325,-2.15,9.28,-0.96,
402,1661557318320,-0.8774,0.1596,0.1921,-1.05,18.5,-2.66,
403,1661557318321,-0.8695,-0.0958,0.0608,-2.75,13.75,1.07,
404,1661557318321,-0.8749,-0.2198,-0.3167,-1.65,-0.29,1.7,
405,1661557318321,-0.8534,-0.0777,0.0246,-2.37,1.74,0.05,
406,1661557318322,-1.0556,-0.298,0.1135,-2.44,-0.29,1.78,
407,1661557318322,-0.9599,-0.3605,-0.0076,-5.05,0.31,1.07,
408,1661557318323,-0.9413,-0.2916,-0.0989,-7.45,-4.76,2.05,
409,1661557318323,-1.08,-0.3375,0.2615,-8.76,3.6,1.06,
410,1661557318324,-1.0195,-0.2823,0.2087,-10.36,-4.01,2.97,
411,1661557318324,-1.1269,-0.2926,0.1262,-12.63,3.27,3.7,
412,1661557318325,-0.9643,-0.2232,0.0749,-12.25,-1.46,3.42,
413,1661557318325,-1.2299,-0.13,0.1379,-12.85,10.12,3.61,
414,1661557318326,-1.1742,-0.0284,0.2815,-11.15,7.33,3.42,
415,1661557318326,-1.2245,-0.048,-0.1028,-13.34,-1.98,0.34,
416,1661557318326,-1.1171,0.1371,0.0476,-16.24,-2.06,0.62,
417,1661557318327,-1.2309,0.0702,0.0959,-13.96,-4.51,0.05,
418,1661557318327,-1.1371,0.0634,-0.0779,-14.34,-3.32,-2.41,
419,1661557318328,-1.2714,0.1405,0.133,-14.54,-3.32,0.07,
420,1661557318328,-1.3261,0.1742,0.2639,-15.96,-3.75,-1.69,
421,1661557318329,-1.3134,0.1376,0.241,-19.74,-8.65,1.59,
422,1661557318329,-1.2577,0.1518,0.2175,-19.24,-5.11,-2.48,
423,1661557318330,-1.2607,0.1063,0.1794,-21.85,-3.08,-2.24,
424,1661557318330,-1.2729,0.1137,0.4216,-21.94,9.19,-2.41,
425,1661557318331,-1.2128,-0.0392,0.321,-19.13,7.59,-2.04,
426,1661557318331,-1.1752,0.0795,0.0398,-19.26,1.07,-6.6,
427,1661557318331,-1.1469,0.1571,0.1404,-17.53,-0.36,-7.59,
428,1661557318334,-1.2323,-0.0348,0.3699,-20.68,-3.42,-5.06,
429,1661557318334,-1.2236,-0.0904,0.0867,-23.74,-8.41,-5.96,
430,1661557318334,-1.0307,0.0287,0.0139,-23.83,-1.72,1.88,
431,1661557318334,-1.1562,0.1347,0.2981,-23.35,0.98,-2.68,
432,1661557318334,-1.1103,0.0756,0.2097,-24.34,-2.32,5.36,
433,1661557318334,-1.1054,0.0814,0.1389,-22.35,-7.48,-1.05,
434,1661557318335,-0.9609,0.2338,0.1599,-26.53,-11.96,1.61,
435,1661557318335,-1.0766,0.3715,0.2937,-23.44,-2.99,2.34,
436,1661557318336,-1.0063,0.3266,0.2209,-12.65,11.72,0.33,
437,1661557318336,-0.9291,0.3505,-0.0808,-14.95,12.15,-3.69,
438,1661557318337,-0.9081,0.5268,0.1116,-19.26,7.83,1.06,
439,1661557318337,-0.8842,0.3803,0.0544,-15.75,1.33,0.34,
440,1661557318338,-0.8534,0.3397,-0.0877,-15.76,-4.18,-6.25,
441,1661557318338,-0.829,0.4227,-0.0432,-13.55,-4.26,-5.15,
442,1661557318338,-0.8178,0.4311,0.0085,-15.64,2.67,0.78,
443,1661557318339,-0.809,0.2411,0.0246,-16.45,2.93,-3.32,
444,1661557318339,-0.7328,0.2787,0.0461,-13.87,4.85,-6.16,
445,1661557318340,-0.7626,0.2294,0.0744,-10.86,4.63,-6.6,
446,1661557318341,-0.705,0.1918,0.0627,-6.55,7.59,-4.97,
447,1661557318341,-0.7172,0.0302,0.052,-6.94,8.68,-5.78,
448,1661557318341,-0.7436,0.0189,0.0012,-5.07,9.69,-1.69,
449,1661557318342,-0.7655,0.1381,-0.0569,-5.86,7.42,-1.23,
450,1661557318342,-0.769,-0.0245,0.1052,-3.66,8.94,-0.96,
451,1661557318343,-0.8876,-0.0885,0.0495,-2.46,4.12,1.87,
452,1661557318343,-0.7084,-0.0709,-0.1311,-5.07,12.74,0.51,
453,1661557318344,-0.9203,-0.0748,-0.0945,-5.34,4.12,3.35,
454,1661557318344,-0.7831,-0.0943,0.134,-2.44,3.1,6.15,
455,1661557318345,-0.8588,-0.294,-0.3665,-6.87,-32.51,7.62,
456,1661557318345,-0.8862,0.0253,-0.1565,-6.45,-5.87,3.15,
457,1661557318345,-0.808,0.0932,0.1692,2.33,7.75,7.34,
458,1661557318346,-1.0126,-0.15,-0.0227,0.75,19.85,8.18,
459,1661557318346,-0.8027,-0.0421,-0.2962,-2.35,11.31,4.99,
460,1661557318347,-0.8725,0.1391,0.1951,-7.25,21.88,6.63,
461,1661557318347,-0.9233,-0.1329,0.0798,-3.36,4.96,4.52,
462,1661557318348,-1.0048,-0.1666,-0.1858,-3.86,-10.01,6.25,
463,1661557318348,-1.0014,-0.0533,0.1218,-8.45,-2.06,3.51,
464,1661557318348,-1.1098,0.0824,0.2312,-10.45,5.63,0.14,
465,1661557318349,-1.0048,-0.1539,-0.1155,-6.64,7.49,2.43,
466,1661557318349,-1.0888,-0.067,0.0554,-8.24,12.32,-1.96,
467,1661557318350,-1.0673,0.0453,0.2263,-8.87,10.79,-2.15,
468,1661557318350,-1.1518,-0.1778,-0.0232,-11.14,-7.55,-0.57,
469,1661557318351,-1.2358,-0.1886,0.1843,-13.55,-6.45,2.14,
470,1661557318351,-1.205,-0.086,0.3215,-13.34,-0.53,3.07,
471,1661557318352,-1.1904,-0.107,-0.0642,-12.65,3.43,1.42,
472,1661557318352,-1.1318,-0.212,0.2126,-17.15,7.16,3.42,
473,1661557318353,-1.3647,-0.2062,0.446,-17.15,-0.03,2.97,
474,1661557318353,-1.1567,-0.0943,-0.0203,-17.43,-13.82,4.08,
475,1661557318354,-1.33,-0.1695,0.4055,-14.65,-4.85,0.69,
476,1661557318354,-1.3324,-0.1695,0.4958,-15.15,0.05,5.16,
477,1661557318355,-1.2006,-0.0763,-0.0457,-25.25,-6.97,-0.04,
478,1661557318355,-1.1962,0.141,0.1609,-25.04,-2.73,7.82,
479,1661557318356,-1.3324,0.037,0.217,-19.74,-10.94,2.8,
480,1661557318356,-1.2113,0.08,0.1975,-21.06,-0.79,8.99,
481,1661557318356,-1.2636,0.2865,0.2253,-23.45,-1.22,3.06,
482,1661557318358,-1.2074,0.3412,0.2034,-23.33,-0.2,2.16,
483,1661557318358,-1.1904,0.2958,0.2854,-23.96,-1.98,-1.05,
484,1661557318358,-1.1044,0.3788,0.2453,-22.75,-0.96,0.14,
485,1661557318358,-1.0693,0.3739,0.1096,-19.36,-3.25,-3.32,
486,1661557318359,-1.1249,0.3515,0.3332,-17.96,6.65,-3.78,
487,1661557318359,-1.0517,0.327,0.1428,-21.55,-3.08,-3.32,
488,1661557318360,-0.9638,0.4643,0.0642,-22.03,2.84,-4.86,
489,1661557318360,-1.0155,0.4647,0.1028,-17.64,2.26,-3.12,
490,1661557318361,-1.0307,0.1254,0.0393,-15.64,5.8,-5.41,
491,1661557318361,-0.8324,0.1977,-0.135,-19.85,-3.16,0.51,
492,1661557318361,-0.8862,0.2787,0.0163,-19.26,-3.83,-3.5,
493,1661557318362,-1.0019,0.1068,0.1033,-13.24,-1.05,-0.68,
494,1661557318362,-0.8036,0.0604,-0.0305,-11.46,1.57,-1.87,
495,1661557318363,-0.7753,0.0556,0.0329,-17.46,-1.72,-2.77,
496,1661557318363,-0.8134,0.0727,0.2361,-15.46,-4.42,-3.14,
497,1661557318364,-0.7944,0.0644,0.1457,-13.66,-3.16,1.59,
498,1661557318364,-0.8232,0.1015,0.0779,-9.06,7.75,4.89,
499,1661557318365,-0.7494,0.1176,0.1291,-10.04,5.98,-1.31,
500,1661557318365,-0.7612,0.1425,0.1345,-13.44,5.3,3.62,
501,1661557318366,-0.6694,0.2011,0.1633,-16.25,4.29,-0.22,
502,1661557318366,-0.7021,0.1649,-0.2791,-10.15,3.1,1.33,
503,1661557318367,-0.7236,0.2548,-0.1824,-4.35,15.2,5.42,
504,1661557318367,-0.7362,0.2494,0.0891,-2.85,13.51,-0.5,
505,1661557318367,-0.7192,0.2133,-0.1653,-10.74,7.92,-0.85,
506,1661557318368,-0.6552,0.2992,-0.3113,-9.75,-10.68,1.59,
507,1661557318368,-0.748,0.2665,-0.0838,-7.35,-2.73,2.51,
508,1661557318369,-0.7934,0.1796,0.2473,-4.06,5.3,0.33,
509,1661557318369,-0.7953,0.1591,-0.2234,-0.35,7.59,1.26,
510,1661557318370,-0.7582,0.1234,-0.0506,-0.37,15.87,3.51,
511,1661557318370,-0.9257,0.0868,0.2849,-0.85,18.24,3.33,
512,1661557318371,-0.8695,-0.0509,0.1067,-2.64,9.86,-0.13,
513,1661557318371,-0.8857,-0.193,-0.3186,-3.66,-1.63,-0.77,
514,1661557318371,-0.8627,-0.0626,0.0437,-3.54,5.8,-0.3,
515,1661557318372,-1.0468,-0.2457,0.1199,-3.95,2.26,-3.4,
516,1661557318372,-0.936,-0.2916,-0.1902,-4.55,1.41,-4.68,
517,1661557318373,-1.1088,-0.3277,-0.0012,-5.86,-7.14,-2.33,
518,1661557318373,-1.0878,-0.3565,0.2517,-6.76,-1.05,1.59,
519,1661557318374,-1.0297,-0.2701,0.2239,-8.87,-4.35,6.06,
520,1661557318374,-1.1469,-0.2545,0.1218,-12.63,3.94,3.71,
521,1661557318375,-0.9848,-0.2374,0.1369,-11.05,0.05,3.61,
522,1661557318375,-1.2309,-0.1471,0.386,-12.36,7.49,1.96,
523,1661557318376,-1.2206,-0.1041,0.2239,-10.86,4.96,4.71,
524,1661557318376,-1.2167,-0.0558,-0.0193,-13.35,-1.46,3.79,
525,1661557318376,-1.1332,0.1317,0.1448,-12.65,0.73,0.33,
526,1661557318377,-1.224,0.0531,0.1399,-14.36,-3.16,6.34,
527,1661557318378,-1.1464,0.037,-0.1814,-17.17,-2.65,3.79,
528,1661557318378,-1.2875,0.1459,0.1052,-19.04,1.07,4.63,
529,1661557318379,-1.2817,0.1107,0.2576,-16.57,-1.07,4.06,
530,1661557318379,-1.2987,0.1029,0.178,-18.75,-8.31,5.51,
531,1661557318379,-1.2572,0.1605,0.1638,-19.13,-5.87,2.51,
532,1661557318380,-1.2563,0.0951,0.154,-22.34,-6.88,4.71,
533,1661557318380,-1.224,0.0922,0.3899,-21.64,4.79,-1.67,
534,1661557318381,-1.2255,-0.0621,0.3987,-19.76,4.03,-2.41,
535,1661557318381,-1.2026,0.0116,0.1457,-18.36,0.64,-3.41,
536,1661557318382,-1.1723,0.122,0.1858,-18.65,5.98,-3.95,
537,1661557318382,-1.2196,-0.0401,0.4123,-21.32,3.94,1.35,
538,1661557318383,-1.2538,-0.129,0.0891,-24.14,-5.61,-4.69,
539,1661557318383,-1.0287,-0.0133,-0.0086,-24.03,-3.32,1.68,
540,1661557318383,-1.1332,0.0556,0.2746,-21.96,-0.29,-0.86,
541,1661557318384,-1.0072,0.0702,0.1218,-21.15,-2.82,5.7,
542,1661557318384,-1.0238,0.1098,0.0373,-25.15,-5.61,2.87,
543,1661557318385,-0.9804,0.1913,0.094,-27.13,-6.97,2.97,
544,1661557318385,-1.0678,0.3349,0.241,-22.35,-8.07,1.33,
545,1661557318386,-1.0116,0.3192,0.2043,-17.24,-1.98,-1.4,
546,1661557318386,-0.9159,0.3358,-0.0681,-16.94,3.86,1.06,
547,1661557318387,-0.8935,0.5092,0.1335,-15.85,13.0,-1.6,
548,1661557318387,-0.8661,0.4149,0.1399,-16.85,6.65,-0.5,
549,1661557318388,-0.851,0.3861,-0.0701,-14.94,0.98,-0.57,
550,1661557318388,-0.8114,0.412,-0.0657,-14.65,1.5,0.97,
551,1661557318388,-0.832,0.4662,0.0754,-16.25,-0.12,-1.23,
552,1661557318389,-0.8134,0.2553,-0.0374,-13.64,2.76,-2.86,
553,1661557318390,-0.7177,0.2855,-0.0051,-9.86,4.2,-3.23,
554,1661557318390,-0.7738,0.2406,0.0764,-9.06,8.26,-2.33,
555,1661557318390,-0.7094,0.225,0.0574,-8.64,7.49,1.35,
556,1661557318391,-0.7148,0.0731,-0.0584,-6.07,5.88,-4.42,
557,1661557318391,-0.7201,0.0424,-0.0252,-9.64,9.61,-3.95,
558,1661557318393,-0.7724,0.1586,0.0129,-10.25,1.83,-3.96,
559,1661557318393,-0.7167,-0.0064,0.0535,-4.15,5.72,-5.34,
560,1661557318393,-0.8661,-0.0558,0.0383,-0.96,3.69,0.05,
561,1661557318393,-0.7646,-0.0294,-0.0437,-0.85,15.96,4.71,
562,1661557318394,-0.8993,-0.0177,-0.0574,-7.86,11.81,3.79,
563,1661557318394,-0.811,-0.0694,0.1882,-2.65,1.74,2.42,
564,1661557318395,-0.9057,-0.2706,-0.3679,-9.16,-38.6,4.06,
565,1661557318395,-0.8984,0.0521,-0.135,-7.37,-14.83,7.8,
566,1661557318395,-0.809,0.1068,0.1575,4.35,14.44,3.15,
567,1661557318396,-1.0395,-0.1158,-0.0545,0.64,24.58,7.99,
568,1661557318396,-0.7875,-0.0201,-0.2722,-4.35,9.69,8.0,
569,1661557318397,-0.9057,0.12,0.2058,-10.44,16.97,2.8,
570,1661557318397,-0.9443,-0.089,0.0437,-7.54,-8.83,4.26,
571,1661557318398,-1.0248,-0.0841,-0.1106,-4.46,-17.03,4.06,
572,1661557318398,-0.9814,-0.0563,0.1814,-8.64,2.17,0.69,
573,1661557318399,-1.1049,0.0961,0.3005,-9.05,9.61,-1.03,
574,1661557318399,-1.0126,-0.1471,-0.1018,-7.16,10.12,3.61,
575,1661557318399,-1.1,-0.0826,0.0818,-5.14,7.33,2.42,
576,1661557318400,-1.1904,-0.027,0.2097,-9.86,6.56,4.34,
577,1661557318400,-1.1576,-0.2091,0.052,-10.36,-6.21,5.35,
578,1661557318401,-1.2177,-0.2023,0.1584,-11.66,-0.62,4.71,
579,1661557318401,-1.1567,-0.1153,0.258,-13.32,-2.49,3.8,
580,1661557318402,-1.1889,-0.1461,-0.0715,-15.66,0.14,4.98,
581,1661557318402,-1.0986,-0.2501,0.1086,-14.88,3.6,8.53,
582,1661557318403,-1.3808,-0.212,0.363,-15.34,2.17,4.71,
583,1661557318403,-1.1567,-0.0958,-0.0252,-16.36,-11.79,6.8,
584,1661557318404,-1.2831,-0.1275,0.0212,-18.25,-8.07,5.16,
585,1661557318404,-1.3422,-0.1793,0.4983,-19.13,-0.2,8.82,
586,1661557318405,-1.1674,-0.1022,0.0207,-22.54,-6.38,-0.67,
587,1661557318405,-1.1938,0.0785,0.1785,-23.04,-1.39,0.98,
588,1661557318405,-1.3632,0.0141,0.3274,-21.06,-9.08,-3.23,
589,1661557318406,-1.2279,0.0692,0.2756,-22.23,0.64,-0.03,
590,1661557318406,-1.2465,0.2606,0.1648,-22.14,-2.99,-0.48,
591,1661557318407,-1.203,0.3012,0.1706,-23.94,5.05,0.42,
592,1661557318407,-1.1488,0.245,0.2742,-24.55,0.4,-2.24,
593,1661557318409,-1.1401,0.3314,0.1477,-25.96,-0.46,2.69,
594,1661557318409,-1.0878,0.3466,0.029,-23.74,-6.28,-0.76,
595,1661557318409,-1.165,0.2811,0.3215,-21.65,4.12,1.96,
596,1661557318409,-1.0385,0.2685,0.1238,-21.15,-1.8,4.16,
597,1661557318410,-0.9931,0.3393,-0.0252,-23.25,-1.63,-4.24,
598,1661557318410,-1.0107,0.4628,0.095,-22.92,4.2,3.26,
599,1661557318411,-1.0717,0.1469,0.2117,-19.84,6.23,-2.15,
600,1661557318411,-0.871,0.1591,-0.0442,-19.35,1.74,-2.33,
601,1661557318412,-0.8803,0.2665,-0.0081,-16.94,-0.7,-6.51,
602,1661557318412,-0.975,0.1234,0.1335,-13.95,2.6,3.24,
603,1661557318412,-0.8915,0.0678,0.0295,-14.74,1.41,1.16,
604,1661557318413,-0.7577,0.059,-0.0672,-17.76,4.12,-0.32,
605,1661557318413,-0.9135,0.0639,0.1438,-16.36,-2.23,-0.77,
606,1661557318414,-0.8217,0.057,0.1687,-14.86,-3.16,-2.77,
607,1661557318414,-0.8036,0.1137,0.0246,-10.35,0.81,0.43,
608,1661557318415,-0.705,0.0976,0.0007,-9.84,3.6,1.97,
609,1661557318415,-0.8212,0.0351,0.1203,-12.44,10.62,4.52,
610,1661557318415,-0.7128,0.2011,0.2795,-14.86,9.69,3.42,
611,1661557318416,-0.7123,0.1825,-0.2293,-15.46,-6.79,-2.41,
612,1661557318416,-0.7675,0.2811,-0.1931,-10.64,-1.8,3.35,
613,1661557318417,-0.7367,0.3163,0.2195,-3.75,14.68,-0.22,
614,1661557318418,-0.6972,0.2289,-0.0759,-3.34,23.39,4.35,
615,1661557318418,-0.7294,0.3163,-0.3806,-6.44,9.19,-0.03,
616,1661557318418,-0.6977,0.2724,-0.1819,-9.26,1.24,-1.05,
617,1661557318419,-0.8129,0.2147,0.3049,-7.54,1.33,-0.41,
618,1661557318419,-0.8256,0.1581,-0.2317,-0.35,1.74,-2.22,
619,1661557318420,-0.769,0.0932,-0.239,2.14,5.22,1.33,
620,1661557318420,-0.7973,0.1234,0.0837,-0.44,18.07,-4.95,
621,1661557318421,-0.9023,-0.0055,0.1628,-1.54,12.65,1.52,
622,1661557318421,-0.9194,-0.1798,-0.3245,-6.64,3.53,-2.48,
623,1661557318421,-0.8984,-0.0582,-0.01,-3.56,1.33,-0.86,
624,1661557318422,-1.0541,-0.2027,0.28,-2.15,3.6,0.16,
625,1661557318422,-1.038,-0.3136,0.1306,-2.96,4.53,0.69,
626,1661557318423,-0.8876,-0.2926,-0.1775,-7.26,-1.63,2.14,
627,1661557318423,-1.0903,-0.3429,0.2224,-8.74,1.41,3.79,
628,1661557318424,-1.0453,-0.2687,0.3244,-8.65,-3.32,7.53,
629,1661557318424,-1.1264,-0.2648,0.094,-7.14,-1.05,6.43,
630,1661557318425,-0.9877,-0.1837,0.0305,-13.66,-0.36,10.9,
631,1661557318425,-1.1342,-0.1319,0.1116,-13.46,1.57,9.27,
632,1661557318426,-1.1786,-0.1056,0.3147,-11.17,3.86,6.89,
633,1661557318426,-1.1479,-0.1061,-0.0935,-11.96,-2.49,4.98,
634,1661557318426,-1.1069,0.122,0.0554,-14.63,5.72,2.43,
635,1661557318427,-1.2353,0.0863,0.1877,-13.76,-0.03,7.07,
636,1661557318427,-1.141,-0.0279,-0.0886,-14.45,-2.91,1.5,
637,1661557318429,-1.2958,0.1371,0.1257,-19.78,-11.7,4.52,
638,1661557318429,-1.3354,0.1478,0.3074,-16.14,-2.49,0.88,
639,1661557318429,-1.2836,0.0624,0.2815,-13.76,-3.32,2.97,
640,1661557318429,-1.2763,0.0985,0.1853,-20.05,4.29,-0.96,
641,1661557318431,-1.2626,0.0648,0.1535,-24.86,-2.06,0.23,
642,1661557318431,-1.2221,0.0634,0.3938,-21.64,0.98,-0.21,
643,1661557318431,-1.245,-0.0753,0.3679,-19.45,-2.32,-3.14,
644,1661557318431,-1.2787,-0.0616,0.1687,-18.94,0.23,-1.95,
645,1661557318431,-1.1825,0.0507,0.0984,-24.03,3.53,0.33,
646,1661557318432,-1.1957,-0.0558,0.3938,-26.03,7.42,-3.14,
647,1661557318433,-1.2533,-0.1207,0.1355,-22.54,-3.08,-3.03,
648,1661557318433,-1.0282,-0.0318,-0.0261,-24.34,-10.6,2.69,
649,1661557318434,-1.1386,0.0727,0.3987,-26.55,-5.19,0.78,
650,1661557318434,-1.0009,0.0961,0.2331,-26.66,-2.91,5.79,
651,1661557318434,-1.0756,0.0687,0.0076,-22.16,2.43,4.06,
652,1661557318435,-1.0141,0.183,0.1286,-21.53,10.55,4.81,
653,1661557318435,-1.0527,0.351,0.2844,-21.45,-2.15,5.42,
654,1661557318436,-0.9994,0.3485,0.2009,-22.05,-2.73,0.88,
655,1661557318436,-0.9164,0.3153,-0.0603,-20.36,-5.95,0.23,
656,1661557318437,-0.8686,0.4188,0.0193,-17.04,8.26,0.52,
657,1661557318437,-0.8979,0.4574,0.1194,-13.53,10.97,0.34,
658,1661557318438,-0.8691,0.3744,-0.0208,-11.75,5.46,2.8,
659,1661557318438,-0.8119,0.3466,-0.0896,-15.75,2.76,4.71,
660,1661557318438,-0.7992,0.4354,0.0652,-18.45,-0.96,2.97,
661,1661557318439,-0.7914,0.2538,0.0159,-18.74,-0.62,-0.22,
662,1661557318439,-0.769,0.2352,-0.0423,-15.06,3.1,-1.51,
663,1661557318440,-0.7524,0.2494,0.072,-9.87,15.61,1.87,
664,1661557318440,-0.7416,0.2172,0.1033,-10.25,14.1,-2.5,
665,1661557318441,-0.7362,0.0902,-0.0681,-12.34,8.85,-0.03,
666,1661557318441,-0.7128,0.0619,-0.0276,-12.24,6.9,2.16,
667,1661557318442,-0.7919,0.1596,-0.0032,-11.86,4.46,3.7,
668,1661557318442,-0.6996,0.0155,-0.0159,-7.97,6.73,-2.24,
669,1661557318443,-0.8324,-0.0558,-0.0276,-4.44,7.75,0.52,
670,1661557318443,-0.8046,-0.0538,-0.0715,-7.55,16.3,3.79,
671,1661557318443,-0.6762,0.017,-0.1331,-8.54,22.29,2.32,
672,1661557318444,-0.7367,0.0409,0.2781,-9.06,35.75,1.06,
673,1661557318445,-0.9452,-0.1935,-0.2107,-0.55,9.11,2.97,
674,1661557318445,-0.7157,-0.1983,-0.199,-13.96,-19.06,3.33,
675,1661557318445,-0.8129,0.0785,0.1125,-7.95,-16.43,-1.12,
676,1661557318446,-1.0678,-0.0348,0.1326,2.14,22.29,4.16,
677,1661557318446,-0.7904,-0.0304,-0.2576,3.45,24.08,-0.86,
678,1661557318447,-0.9369,0.1102,0.0964,-7.46,26.78,-0.41,
679,1661557318447,-0.9892,-0.004,0.1428,-9.64,7.92,3.8,
680,1661557318448,-1.0185,-0.1603,-0.2874,-7.97,-14.49,6.25,
681,1661557318448,-0.9418,-0.1231,-0.0388,-8.15,-4.51,3.16,
682,1661557318449,-1.1528,0.1044,0.2844,-8.64,1.5,-0.68,
683,1661557318449,-1.0859,-0.1935,-0.054,-10.45,6.23,5.16,
684,1661557318450,-1.06,-0.1349,0.0227,-8.83,9.61,0.43,
685,1661557318450,-1.143,0.0136,0.2395,-11.96,8.76,3.88,
686,1661557318450,-1.142,-0.1549,0.1042,-10.76,-2.99,-1.6,
687,1661557318451,-1.1904,-0.2408,0.1648,-11.95,-3.08,3.35,
688,1661557318451,-1.1557,-0.1466,0.3171,-16.33,-2.73,-1.31,
689,1661557318452,-1.2436,-0.108,0.0466,-17.43,1.24,0.16,
690,1661557318452,-1.1049,-0.2145,0.1067,-15.14,4.79,2.98,
691,1661557318454,-1.3832,-0.2633,0.3616,-15.06,7.16,3.06,
692,1661557318454,-1.1659,-0.0934,-0.0154,-18.94,-9.93,1.61,
693,1661557318454,-1.3573,-0.1783,0.3347,-19.04,-8.24,3.8,
694,1661557318454,-1.3383,-0.1974,0.5378,-22.34,-0.7,-1.31,
695,1661557318455,-1.1171,-0.1241,-0.0193,-24.25,-8.48,-2.15,
696,1661557318455,-1.2118,0.0282,0.0989,-24.73,1.74,-1.41,
697,1661557318455,-1.2802,0.0429,0.4231,-21.55,-5.35,-2.24,
698,1661557318456,-1.2216,0.0473,0.3064,-23.45,2.34,-0.59,
699,1661557318456,-1.2509,0.2587,0.178,-26.53,-3.58,-0.68,
700,1661557318457,-1.1322,0.2128,0.2204,-26.23,2.76,0.69,
701,1661557318457,-1.1313,0.2201,0.3474,-25.53,1.07,-0.57,
702,1661557318458,-1.1767,0.2982,0.217,-27.83,2.93,-2.76,
703,1661557318458,-1.0522,0.33,-0.0476,-24.73,-1.63,0.52,
704,1661557318459,-1.1767,0.3051,0.2825,-24.03,9.61,0.6,
705,1661557318459,-1.0336,0.2987,0.2234,-20.16,6.4,-2.33,
706,1661557318460,-0.9355,0.3227,-0.114,-24.25,0.57,3.06,
707,1661557318460,-0.9701,0.3983,-0.011,-26.73,5.39,-4.4,
708,1661557318460,-1.0409,0.2123,0.2263,-22.35,5.39,-2.77,
709,1661557318461,-0.9179,0.1107,-0.0427,-19.04,2.43,-2.57,
710,1661557318462,-0.8056,0.2533,-0.1331,-19.44,-1.05,0.07,
711,1661557318462,-0.9433,0.1376,0.1897,-20.54,2.5,1.61,
712,1661557318462,-0.8407,0.058,0.0129,-18.25,-1.8,-1.14,
713,1661557318462,-0.8139,0.0824,-0.0711,-17.84,3.43,5.09,
714,1661557318463,-0.9628,0.0341,0.1096,-15.46,0.05,2.14,
715,1661557318463,-0.7655,0.0517,0.2722,-17.75,8.26,5.53,
716,1661557318464,-0.7802,0.1518,0.0696,-17.06,1.57,2.78,
717,1661557318464,-0.6733,0.078,-0.1467,-16.05,0.14,8.53,
718,1661557318465,-0.7719,0.0604,0.0129,-14.95,9.11,9.8,
719,1661557318466,-0.7416,0.183,0.3352,-12.04,20.1,4.45,
720,1661557318466,-0.7768,0.2045,-0.1555,-10.35,1.91,6.34,
721,1661557318466,-0.7602,0.2372,-0.3298,-13.85,-0.12,1.42,
722,1661557318467,-0.7284,0.3197,0.237,-7.25,6.06,1.61,
723,1661557318467,-0.7709,0.2631,0.2429,-4.75,10.88,3.15,
724,1661557318468,-0.7416,0.2084,-0.3474,-2.94,2.84,-0.39,
725,1661557318468,-0.7172,0.2807,-0.2478,-9.75,5.39,1.78,
726,1661557318469,-0.8481,0.3017,0.4289,-8.65,13.84,-1.87,
727,1661557318469,-0.811,0.1552,-0.1463,-7.06,7.25,-0.41,
728,1661557318470,-0.7768,0.037,-0.4343,-5.97,2.93,-0.86,
729,1661557318470,-0.8163,0.1,-0.011,-2.15,11.9,-5.78,
730,1661557318471,-0.9384,0.0824,0.3367,-4.17,13.0,-1.96,
731,1661557318471,-0.9272,-0.1651,-0.3162,-1.66,5.3,-2.77,
732,1661557318472,-0.8945,-0.1105,-0.1848,-7.75,3.6,2.51,
733,1661557318472,-1.0258,-0.1524,0.3054,-8.56,2.26,-1.41,
734,1661557318472,-1.0278,-0.2472,0.2688,-4.46,-0.03,4.71,
735,1661557318472,-0.8852,-0.3502,-0.2727,-5.95,-9.93,4.43,
736,1661557318473,-1.1195,-0.3517,0.1189,-10.86,1.24,3.79,
737,1661557318473,-1.0844,-0.2306,0.5359,-11.15,1.33,5.79,
738,1661557318474,-1.1772,-0.3326,0.0813,-13.44,-1.8,6.81,
739,1661557318475,-0.9941,-0.192,-0.0169,-13.85,-4.18,12.09,
740,1661557318475,-1.2665,-0.087,0.386,-18.45,5.63,1.78,
741,1661557318476,-1.1913,-0.1173,0.4172,-14.05,8.42,6.52,
742,1661557318476,-1.1288,-0.1564,-0.1502,-13.35,-2.15,1.24,
743,1661557318477,-1.1484,0.0941,0.0105,-15.75,6.4,3.8,
744,1661557318477,-1.2441,0.1298,0.2815,-16.63,-0.87,4.52,
745,1661557318477,-1.1381,-0.0533,-0.1741,-19.33,-7.31,6.81,
746,1661557318478,-1.3095,0.121,0.0285,-20.86,-9.75,-1.51,
747,1661557318478,-1.2992,0.2147,0.363,-18.54,-3.32,-0.12,
748,1661557318479,-1.2445,0.0731,0.2756,-19.55,-3.83,-5.15,
749,1661557318479,-1.2655,0.0502,0.1203,-22.05,1.07,-3.87,
750,1661557318480,-1.2284,0.0985,0.2219,-24.05,-2.91,2.23,
751,1661557318480,-1.227,0.0409,0.4304,-22.14,3.69,-1.31,
752,1661557318481,-1.2592,-0.0606,0.3474,-21.53,2.0,-0.67,
753,1661557318481,-1.2196,-0.0235,0.0705,-22.66,6.4,-3.14,
754,1661557318482,-1.1401,0.0697,0.3244,-23.96,6.9,0.23,
755,1661557318482,-1.1659,-0.0265,0.3777,-22.93,5.89,0.34,
756,1661557318482,-1.2577,-0.1505,0.0974,-27.05,-4.42,2.23,
757,1661557318484,-0.9916,-0.0533,-0.0818,-29.05,-8.31,-0.22,
758,1661557318484,-1.1318,-0.0045,0.3454,-27.85,-0.62,0.14,
759,1661557318484,-0.9823,0.0595,0.1394,-26.34,-2.56,-3.87,
760,1661557318484,-1.0351,0.1151,0.074,-26.14,1.91,2.89,
761,1661557318485,-1.0522,0.2089,0.1872,-25.05,2.84,4.43,
762,1661557318485,-1.0463,0.244,0.2229,-30.15,-7.14,6.43,
763,1661557318486,-0.9628,0.3285,0.196,-27.45,-5.02,1.78,
764,1661557318486,-0.956,0.3734,0.0842,-25.25,-2.49,-1.51,
765,1661557318487,-0.8486,0.3886,0.0559,-15.66,13.0,0.42,
766,1661557318487,-0.8769,0.392,0.0661,-16.57,13.25,-2.05,
767,1661557318488,-0.871,0.4452,0.0183,-21.64,2.84,-1.03,
768,1661557318488,-0.8139,0.3895,-0.0852,-22.25,-2.23,-7.79,
769,1661557318488,-0.8095,0.3925,0.0886,-12.94,2.0,-1.78,
770,1661557318489,-0.788,0.2689,-0.054,-12.85,4.12,-6.31,
771,1661557318489,-0.7109,0.3002,-0.0476,-17.55,10.55,-2.77,
772,1661557318489,-0.7665,0.1703,0.176,-19.55,11.98,-0.96,
773,1661557318491,-0.7323,0.1615,0.0027,-16.43,7.49,-0.94,
774,1661557318491,-0.7348,0.1376,-0.0867,-11.06,2.6,1.68,
775,1661557318491,-0.7148,0.0512,0.0544,-10.16,10.62,-0.32,
776,1661557318492,-0.7826,0.078,0.0993,-12.05,11.98,-1.14,
777,1661557318492,-0.6728,0.0819,-0.0613,-9.96,12.48,0.33,
778,1661557318493,-0.9023,-0.0211,-0.0242,-9.96,6.82,2.69,
779,1661557318493,-0.6508,-0.0489,-0.0237,-7.97,14.44,5.16,
780,1661557318494,-0.9545,-0.0016,-0.1072,-7.06,20.02,-0.59,
781,1661557318494,-0.5702,0.1186,0.1125,-4.44,16.21,0.89,
782,1661557318495,-0.9047,-0.0948,-0.0564,-11.64,-30.56,-1.03,
783,1661557318495,-0.769,-0.11,-0.2298,-17.26,-16.26,0.6,
784,1661557318496,-0.9008,0.2304,0.2707,2.55,29.07,2.8,
785,1661557318496,-1.0019,-0.108,-0.0545,0.17,28.64,4.45,
786,1661557318496,-0.766,-0.0328,-0.3382,-9.55,15.03,7.44,
787,1661557318497,-0.9662,0.1659,0.302,-15.27,8.59,4.25,
788,1661557318497,-1.06,0.1542,0.2258,-10.74,-9.25,9.28,
789,1661557318498,-1.0351,-0.1627,-0.2923,-5.55,-18.64,7.8,
790,1661557318498,-1.0839,-0.0401,0.1985,-7.14,7.42,2.16,
791,1661557318499,-1.1298,0.1098,0.2668,-10.96,11.38,1.24,
792,1661557318499,-1.0063,-0.1642,-0.0911,-14.16,12.41,4.25,
793,1661557318500,-1.0678,-0.1461,0.1203,-14.56,2.84,3.61,
794,1661557318500,-1.1396,-0.0099,0.2517,-12.24,-4.35,8.64,
795,1661557318501,-1.1781,-0.2252,0.0486,-13.44,-7.55,4.43,
796,1661557318501,-1.2724,-0.2106,0.1702,-17.93,5.46,5.99,
797,1661557318501,-1.2519,-0.1261,0.1643,-22.45,3.53,2.6,
798,1661557318502,-1.2118,-0.1798,0.0022,-19.94,1.66,4.72,
799,1661557318502,-1.1904,-0.2521,0.2605,-20.45,3.19,1.42,
800,1661557318503,-1.3442,-0.2818,0.3274,-19.13,-0.96,0.71,
801,1661557318503,-1.2006,-0.0958,0.0823,-22.93,-17.79,4.9,
802,1661557318504,-1.3842,-0.1773,0.3562,-23.74,-3.83,3.35,
803,1661557318504,-1.2524,-0.131,0.4968,-22.54,-0.36,5.62,
804,1661557318505,-1.2553,-0.0309,-0.134,-28.05,-4.94,1.42,
805,1661557318505,-1.2402,0.1024,0.4167,-26.34,0.4,2.23,
806,1661557318506,-1.3476,0.0561,0.2961,-24.66,-8.74,-1.14,
807,1661557318506,-1.1967,0.1859,0.2688,-26.14,2.6,3.62,
808,1661557318506,-1.2646,0.2919,0.2121,-22.54,-1.8,-1.51,
809,1661557318508,-1.164,0.2465,0.178,-28.53,3.43,2.71,
810,1661557318508,-1.1689,0.2206,0.3284,-28.75,3.36,-4.6,
811,1661557318508,-1.0868,0.328,0.1008,-32.55,1.83,-2.95,
812,1661557318508,-1.0629,0.3134,0.0466,-28.15,-4.51,-7.98,
813,1661557318509,-1.1391,0.2943,0.2678,-27.95,8.18,-4.33,
814,1661557318509,-1.0893,0.3505,0.3157,-27.97,2.43,-6.88,
815,1661557318510,-0.9452,0.3002,-0.1048,-29.56,4.37,-6.07,
816,1661557318510,-0.9623,0.3373,0.1457,-24.15,11.64,-3.6,
817,1661557318510,-1.0385,0.1278,0.1374,-23.64,9.61,-9.7,
818,1661557318511,-0.8559,0.205,-0.1585,-25.63,-0.53,-7.06,
819,1661557318512,-0.9467,0.2313,0.0393,-21.45,1.07,-7.88,
820,1661557318512,-0.9721,0.1518,0.2366,-18.74,5.98,-2.5,
821,1661557318513,-0.8393,0.0839,0.0442,-21.35,3.53,-5.7,
822,1661557318513,-0.8481,0.0482,-0.0701,-21.96,2.6,-3.32,
823,1661557318514,-0.8569,0.015,0.154,-20.84,-2.23,0.62,
824,1661557318514,-0.8031,0.0956,0.3049,-18.84,9.02,5.79,
825,1661557318514,-0.7948,0.1898,0.1628,-16.05,5.46,5.25,
826,1661557318515,-0.6601,0.0551,-0.2576,-16.45,8.18,0.05,
827,1661557318515,-0.7582,0.0775,0.0608,-16.75,9.86,7.07,
828,1661557318516,-0.7128,0.2421,0.2815,-18.86,13.67,2.97,
829,1661557318516,-0.6674,0.1732,-0.3831,-16.54,-1.05,1.61,
830,1661557318517,-0.7597,0.2606,-0.2215,-11.55,-0.29,0.14,
831,1661557318517,-0.7563,0.3446,0.1794,-10.24,14.1,-0.03,
832,1661557318517,-0.787,0.2816,0.1882,-8.06,11.38,3.06,
833,1661557318518,-0.6708,0.1889,-0.5564,-8.56,3.1,1.96,
834,1661557318518,-0.7763,0.2811,0.1077,-12.63,7.59,4.34,
835,1661557318519,-0.828,0.2943,0.4851,-10.15,12.65,-3.4,
836,1661557318519,-0.7992,0.1854,0.0217,-6.36,5.05,-1.96,
837,1661557318520,-0.7426,-0.0445,-0.4705,-7.97,9.36,-3.69,
838,1661557318520,-0.8539,0.1342,0.2512,-5.07,16.54,-5.79,
839,1661557318521,-0.8656,0.0043,0.1594,-4.94,11.81,-2.66,
840,1661557318521,-0.8754,-0.2638,-0.4685,-6.85,0.31,-3.76,
841,1661557318522,-0.8852,-0.1441,0.0251,-9.55,5.8,0.05,
842,1661557318522,-0.9306,-0.1373,0.258,-8.44,7.16,-3.87,
843,1661557318522,-0.9106,-0.2618,0.1018,-7.06,1.5,2.32,
844,1661557318523,-0.9443,-0.359,-0.2732,-11.86,-9.34,3.15,
845,1661557318524,-1.1098,-0.3155,0.3689,-12.95,0.73,2.51,
846,1661557318524,-1.078,-0.2345,0.4392,-14.86,-3.58,8.17,
847,1661557318525,-1.0834,-0.3053,-0.0051,-16.24,-2.49,5.53,
848,1661557318525,-1.0297,-0.1217,0.0281,-16.43,-3.42,3.9,
849,1661557318525,-1.2846,-0.089,0.3464,-17.46,18.57,-1.14,
850,1661557318526,-1.1747,-0.0714,0.3591,-17.64,10.21,2.07,
851,1661557318526,-1.1894,-0.0948,-0.3767,-19.96,-4.51,0.14,
852,1661557318527,-1.1791,0.2269,0.2829,-20.86,0.98,1.42,
853,1661557318527,-1.2196,0.0741,0.1155,-23.24,-4.42,-2.24,
854,1661557318528,-1.1225,-0.066,-0.323,-20.16,-4.18,0.78,
855,1661557318528,-1.331,0.1752,0.2956,-23.94,2.17,0.34,
856,1661557318529,-1.3178,0.244,0.4827,-25.13,-1.63,1.97,
857,1661557318529,-1.2782,0.057,0.1706,-22.84,-9.08,-3.86,
858,1661557318529,-1.2577,0.0663,0.1662,-27.15,-5.61,-3.6,
859,1661557318530,-1.29,0.08,0.3127,-29.07,-1.07,-3.41,
860,1661557318530,-1.2709,0.0233,0.4963,-24.23,15.61,-5.43,
861,1661557318531,-1.2294,-0.1202,0.1824,-24.25,7.75,-4.33,
862,1661557318532,-1.184,0.0116,0.1169,-30.56,3.1,-3.5,
863,1661557318532,-1.1474,0.0741,0.2937,-30.87,1.74,-1.41,
864,1661557318532,-1.269,-0.1334,0.2912,-30.04,2.34,-4.15,
865,1661557318533,-1.1908,-0.1139,-0.0549,-28.73,-5.19,-3.05,
866,1661557318533,-1.0863,-0.0294,0.0842,-30.33,1.41,2.78,
867,1661557318534,-1.1523,0.0233,0.4353,-31.14,5.46,3.33,
868,1661557318534,-1.058,0.0985,-0.0217,-32.65,-2.23,0.33,
869,1661557318535,-1.0522,0.1708,0.1506,-32.24,-2.39,0.88,
870,1661557318535,-0.9926,0.2069,0.3625,-35.14,-5.69,-0.77,
871,1661557318536,-0.9975,0.2323,0.1506,-29.43,-1.72,0.98,
872,1661557318536,-0.9379,0.3847,0.0261,-24.02,10.62,-2.39,
873,1661557318537,-0.9672,0.4247,0.1028,-23.45,12.41,-4.6,
874,1661557318537,-0.8896,0.4394,0.0642,-23.44,8.52,-2.48,
875,1661557318537,-0.8617,0.4125,-0.0501,-24.84,3.77,-4.4,
876,1661557318538,-0.8149,0.391,-0.114,-21.26,1.74,-4.51,
877,1661557318538,-0.8256,0.4057,0.0539,-19.84,8.26,-2.13,
878,1661557318539,-0.809,0.3695,0.1125,-20.05,6.15,-3.41,
879,1661557318539,-0.789,0.2621,-0.0823,-19.26,5.46,-4.51,
880,1661557318540,-0.7118,0.2826,0.1213,-18.45,12.24,-4.42,
881,1661557318540,-0.7543,0.1786,0.1609,-19.26,11.72,-1.32,
882,1661557318541,-0.7441,0.162,-0.1707,-19.74,8.01,-4.31,
883,1661557318541,-0.7445,0.1054,-0.1887,-16.54,4.63,-0.57,
884,1661557318542,-0.7987,0.0634,0.1028,-12.95,11.31,-0.13,
885,1661557318542,-0.7734,0.1459,0.0246,-12.94,9.69,3.33,
886,1661557318542,-0.7616,0.0521,-0.1467,-14.86,8.35,-0.96,
887,1661557318543,-0.9037,-0.0279,0.0212,-14.43,3.86,-0.94,
888,1661557318543,-0.6137,-0.0138,0.008,-15.26,9.02,1.5,
889,1661557318544,-0.6879,-0.0084,-0.0774,-14.76,6.73,-2.15,
890,1661557318544,-0.6718,0.1298,0.2541,-8.56,-10.51,6.25,
891,1661557318545,-0.9721,-0.1481,-0.1165,-18.86,-38.18,2.05,
892,1661557318545,-0.8105,0.0219,-0.2215,-7.84,16.8,6.35,
893,1661557318546,-0.9784,0.2694,0.4089,0.93,39.13,2.97,
894,1661557318546,-0.893,-0.0719,-0.1067,-6.16,31.27,1.68,
895,1661557318547,-0.8442,0.0194,-0.3484,-18.05,2.93,0.51,
896,1661557318547,-0.8881,0.12,0.1238,-16.14,-0.79,2.98,
897,1661557318548,-0.9574,-0.0475,0.1194,-9.84,-14.16,0.88,
898,1661557318548,-0.9613,-0.1466,-0.2952,-8.24,-4.68,-1.41,
899,1661557318549,-1.1435,0.0614,0.3064,-16.65,16.21,1.06,
900,1661557318549,-1.1195,-0.0314,0.0818,-19.45,7.66,-0.59,
901,1661557318549,-0.9858,-0.1354,-0.0779,-17.06,1.74,2.05,
902,1661557318550,-1.1425,-0.0973,0.1926,-13.53,-1.13,1.7,
903,1661557318551,-1.144,-0.0484,0.24,-15.66,-3.42,4.61,
904,1661557318551,-1.1659,-0.2315,0.074,-18.66,9.11,2.6,
905,1661557318551,-1.2245,-0.2189,0.2947,-21.55,14.18,-0.41,
906,1661557318552,-1.2695,-0.1515,0.0705,-24.05,-4.09,2.78,
907,1661557318552,-1.143,-0.2272,0.0198,-21.74,-9.08,3.71,
908,1661557318553,-1.3393,-0.3106,0.4026,-22.92,2.93,2.8,
909,1661557318553,-1.2367,-0.1246,-0.0335,-22.84,-3.16,2.8,
910,1661557318554,-1.3896,-0.1754,0.2541,-25.56,0.47,3.51,
911,1661557318554,-1.3388,-0.2228,0.615,-28.55,7.59,4.52,
912,1661557318554,-1.0873,-0.152,0.0808,-31.13,-14.75,4.99,
913,1661557318556,-1.2323,0.0028,-0.0921,-32.73,-4.85,1.88,
914,1661557318556,-1.2265,0.0956,0.4485,-26.25,-3.32,4.34,
915,1661557318556,-1.2831,0.0253,0.2331,-26.34,0.14,1.61,
916,1661557318556,-1.2651,0.2758,0.2331,-27.24,6.32,0.23,
917,1661557318557,-1.2758,0.3524,0.1887,-31.33,-2.91,-0.94,
918,1661557318557,-1.1117,0.182,0.2585,-31.45,4.96,-1.32,
919,1661557318558,-1.1537,0.2099,0.366,-29.83,6.49,-2.39,
920,1661557318558,-1.0273,0.2787,-0.0159,-29.95,4.2,-4.42,
921,1661557318559,-1.1117,0.2802,0.2268,-32.64,4.87,-3.96,
922,1661557318559,-1.1161,0.3578,0.4631,-32.65,12.74,-6.51,
923,1661557318560,-1.0248,0.2758,0.1726,-27.33,5.22,-9.7,
924,1661557318560,-0.9057,0.2909,-0.1135,-28.75,7.92,-5.79,
925,1661557318560,-0.976,0.202,0.1711,-29.33,4.87,-6.05,
926,1661557318561,-0.9921,0.039,-0.0086,-28.14,2.17,-3.95,
927,1661557318561,-0.7904,0.265,-0.1306,-23.74,-0.03,-6.77,
928,1661557318562,-0.9965,0.1703,0.2507,-23.65,5.22,-1.69,
929,1661557318562,-0.9643,0.0932,0.2893,-24.15,4.46,-5.7,
930,1661557318563,-0.8056,0.0692,-0.0676,-24.64,-3.32,-0.57,
931,1661557318563,-0.9296,0.0272,0.0461,-22.55,3.01,-2.33,
932,1661557318564,-0.7587,0.0658,0.2605,-22.16,10.29,3.51,
933,1661557318564,-0.7504,0.1518,0.2532,-22.13,14.34,1.26,
934,1661557318565,-0.7509,0.1088,-0.1697,-25.24,3.1,2.51,
935,1661557318565,-0.7343,0.0927,-0.0603,-24.23,4.79,5.61,
936,1661557318566,-0.7528,0.1605,0.1526,-19.13,7.49,3.33,
937,1661557318566,-0.8227,0.3002,0.1184,-14.95,10.29,7.07,
938,1661557318566,-0.6928,0.2094,-0.4876,-15.26,-2.23,6.34,
939,1661557318567,-0.7577,0.3002,-0.0466,-18.75,5.46,4.43,
940,1661557318567,-0.8031,0.2982,0.3401,-12.44,13.25,4.72,
941,1661557318568,-0.7548,0.2411,-0.0755,-9.05,1.07,5.36,
942,1661557318568,-0.623,0.1776,-0.5833,-12.94,-0.29,0.89,
943,1661557318570,-0.8412,0.3646,0.4162,-15.47,14.59,0.42,
944,1661557318570,-0.7836,0.1996,0.1428,-13.26,9.95,1.78,
945,1661557318570,-0.7348,-0.0489,-0.5921,-10.54,2.84,2.14,
946,1661557318570,-0.8925,0.1405,0.2063,-9.16,12.82,0.33,
947,1661557318570,-0.9399,0.1561,0.4285,-10.74,11.14,6.17,
948,1661557318571,-0.8403,-0.0777,-0.2024,-8.54,5.56,2.16,
949,1661557318571,-0.8862,-0.2726,-0.4329,-10.74,-1.05,5.99,
950,1661557318572,-0.9599,-0.1461,0.261,-12.44,3.53,5.99,
951,1661557318572,-0.9985,-0.2154,0.2346,-12.34,3.77,8.0,
952,1661557318573,-0.9726,-0.3331,-0.2376,-12.65,0.73,5.42,
953,1661557318573,-1.08,-0.3429,-0.0828,-19.55,-0.29,6.61,
954,1661557318574,-1.0712,-0.2901,0.5066,-21.26,-2.99,2.32,
955,1661557318574,-1.1347,-0.2423,0.2473,-18.43,-0.53,2.6,
956,1661557318575,-1.0561,-0.1661,-0.0335,-17.65,3.69,0.69,
957,1661557318575,-1.2729,-0.1173,0.1814,-18.75,5.46,0.33,
958,1661557318576,-1.1742,-0.0265,0.3894,-24.05,13.41,4.8,
959,1661557318576,-1.1528,-0.1197,-0.3738,-20.86,-4.76,0.88,
960,1661557318577,-1.0951,0.1781,0.1467,-21.26,4.7,-0.04,
961,1661557318577,-1.288,0.2357,0.4265,-21.85,0.23,-3.87,
962,1661557318577,-1.245,0.0053,0.0339,-25.45,-2.91,-1.6,
963,1661557318578,-1.2431,0.0624,-0.1384,-25.74,-11.2,-2.76,
964,1661557318578,-1.3149,0.2284,0.5134,-26.15,0.31,0.88,
965,1661557318579,-1.2758,0.0531,0.3103,-24.84,-2.73,-4.59,
966,1661557318579,-1.2587,0.0687,0.0803,-30.46,5.56,-2.95,
967,1661557318580,-1.1991,0.1049,0.2131,-28.34,5.3,-2.57,
968,1661557318580,-1.2914,0.0731,0.4148,-29.75,6.9,-1.69,
969,1661557318581,-1.2743,-0.0314,0.3342,-28.23,3.53,-1.41,
970,1661557318581,-1.2714,-0.1109,0.0403,-27.74,-2.15,-4.13,
971,1661557318582,-1.162,0.0834,0.2449,-31.43,-0.53,-3.31,
972,1661557318582,-1.2504,-0.108,0.3064,-33.54,7.33,-1.22,
973,1661557318583,-1.2563,-0.1417,-0.0198,-31.46,-0.79,0.33,
974,1661557318583,-1.0927,-0.0382,0.1199,-31.85,-5.02,2.6,
975,1661557318584,-1.1503,-0.0123,0.4231,-32.35,0.57,2.97,
976,1661557318584,-1.0658,0.0263,0.3728,-31.83,0.05,4.72,
977,1661557318585,-1.0639,0.1195,-0.0335,-36.74,-0.46,2.32,
978,1661557318585,-1.0082,0.2367,0.342,-34.23,10.97,0.8,
979,1661557318585,-1.0439,0.2826,0.2395,-30.24,4.63,1.96,
980,1661557318586,-0.9384,0.2875,0.0993,-29.85,4.96,0.69,
981,1661557318586,-0.9233,0.4027,0.009,-28.75,2.34,2.32,
982,1661557318587,-0.8427,0.3915,0.0129,-23.53,7.49,2.16,
983,1661557318587,-0.8891,0.4227,0.0002,-21.85,9.36,1.5,
984,1661557318588,-0.8627,0.4184,-0.1463,-22.86,5.22,-3.32,
985,1661557318588,-0.7958,0.3544,-0.1677,-24.64,-0.29,-4.05,
986,1661557318589,-0.8144,0.3993,0.0735,-23.85,8.94,-2.15,
987,1661557318589,-0.7572,0.3148,0.0119,-17.64,6.82,-1.78,
988,1661557318589,-0.7148,0.2811,-0.0916,-19.65,7.42,-2.59,
989,1661557318590,-0.7431,0.2016,0.2117,-19.45,14.01,-2.05,
990,1661557318590,-0.788,0.1654,0.1008,-20.03,8.26,-2.57,
991,1661557318591,-0.7792,0.1254,-0.1687,-18.66,4.29,2.14,
992,1661557318591,-0.7231,0.0775,-0.0823,-18.74,9.52,-1.31,
993,1661557318592,-0.8251,0.0194,0.1706,-16.54,14.86,0.07,
994,1661557318592,-0.6518,0.1107,-0.0613,-13.46,6.32,-0.13,
995,1661557318593,-0.8066,0.0077,-0.1746,-15.84,1.33,0.71,
996,1661557318593,-0.8212,-0.0797,-0.0344,-15.05,2.0,2.61,
997,1661557318594,-0.4799,0.0136,-0.155,-14.65,-3.08,4.98,
998,1661557318594,-0.9247,-0.0182,-0.1038,-17.15,-24.38,5.61,
999,1661557318595,-0.8827,0.0639,0.0329,-20.65,10.21,7.73,
1000,1661557318595,-0.7221,-0.172,-0.4841,-6.06,17.56,7.53,
1001,1661557318595,-0.8144,0.1015,-0.1756,-7.06,30.93,6.52,
1002,1661557318596,-0.9916,0.12,0.4612,-21.15,5.63,8.63,
1003,1661557318596,-0.7406,-0.0968,-0.28,-22.35,-21.6,3.42,
1004,1661557318597,-0.8959,0.0409,-0.0398,-12.63,-14.07,3.8,
1005,1661557318597,-1.1279,0.1161,0.2815,-7.64,14.6,1.88,
1006,1661557318598,-0.9086,-0.2203,-0.0203,-10.25,13.93,1.06,
1007,1661557318598,-0.977,-0.0846,-0.0916,-17.84,14.27,5.71,
1008,1661557318599,-1.182,0.164,0.3811,-19.33,-9.93,5.09,
1009,1661557318599,-1.0409,-0.1666,-0.1419,-15.14,-15.5,6.99,
1010,1661557318600,-1.017,-0.1256,0.0666,-17.96,9.45,3.33,
1011,1661557318600,-1.1498,-0.0641,0.2195,-17.85,12.24,-0.5,
1012,1661557318601,-1.1723,-0.2223,-0.0125,-18.66,-2.23,0.42,
1013,1661557318601,-1.2455,-0.2135,0.2854,-22.64,-5.28,-1.51,
1014,1661557318602,-1.2997,-0.1637,0.1477,-22.03,-7.81,2.43,
1015,1661557318602,-1.1913,-0.1686,-0.0803,-23.44,-5.45,4.16,
1016,1661557318602,-1.1239,-0.3043,0.2619,-24.05,10.88,1.59,
1017,1661557318603,-1.3705,-0.2936,0.53,-24.17,0.31,-2.05,
1018,1661557318603,-1.0951,-0.1329,-0.1897,-30.33,-21.35,2.14,
1019,1661557318604,-1.3691,-0.1827,0.5705,-33.04,-0.46,-1.4,
1020,1661557318604,-1.1952,-0.1173,0.3708,-28.15,2.34,2.14,
1021,1661557318605,-1.2275,-0.0079,-0.2859,-31.63,6.06,2.89,
1022,1661557318605,-1.226,0.1566,0.4011,-35.32,8.42,1.96,
1023,1661557318606,-1.33,0.1112,0.3855,-31.95,-6.28,-0.04,
1024,1661557318606,-1.2074,0.0619,0.2327,-31.63,-0.53,0.52,
1025,1661557318607,-1.2685,0.2816,0.0647,-30.14,-7.48,-0.5,
1026,1661557318607,-1.143,0.1815,0.2024,-34.85,5.3,-1.87,
1027,1661557318608,-1.2201,0.1874,0.4866,-34.45,9.45,-2.33,
1028,1661557318608,-1.0761,0.2748,0.0735,-33.33,6.15,-3.14,
1029,1661557318608,-1.0717,0.2836,-0.1067,-34.35,1.66,1.15,
1030,1661557318609,-1.1855,0.3031,0.4275,-28.35,17.47,-3.6,
1031,1661557318609,-1.0829,0.2885,0.3118,-31.95,10.45,-2.5,
1032,1661557318610,-0.9487,0.2714,-0.1648,-34.53,8.76,-6.51,
1033,1661557318611,-0.9775,0.2494,0.1438,-28.75,7.59,-4.33,
1034,1661557318611,-1.0702,0.0561,0.1023,-26.95,6.73,-1.69,
1035,1661557318611,-0.9042,0.1327,-0.1165,-31.25,-0.46,-3.5,
1036,1661557318612,-0.8554,0.2499,-0.2132,-28.53,0.73,-2.94,
1037,1661557318612,-0.9828,0.122,0.3074,-25.63,8.26,-5.78,
1038,1661557318613,-0.8105,0.0932,0.0115,-27.33,1.24,-5.32,
1039,1661557318613,-0.8529,0.0165,-0.0095,-28.72,3.77,-0.67,
1040,1661557318614,-0.745,0.0619,0.2502,-23.85,2.34,0.97,
1041,1661557318614,-0.7245,0.1664,0.3088,-25.04,13.34,2.87,
1042,1661557318615,-0.7719,0.1898,0.1101,-21.13,13.51,3.44,
1043,1661557318615,-0.7138,0.0824,-0.2102,-23.06,14.94,1.87,
1044,1661557318615,-0.6772,0.1679,0.0159,-22.74,7.25,3.99,
1045,1661557318617,-0.726,0.2792,0.1614,-21.74,12.74,2.43,
1046,1661557318617,-0.6899,0.2152,-0.3855,-15.95,10.55,0.34,
1047,1661557318617,-0.704,0.2089,-0.6121,-14.86,9.19,0.78,
1048,1661557318617,-0.7402,0.3549,0.219,-23.13,13.58,-0.21,
1049,1661557318618,-0.7948,0.2909,0.2058,-22.43,-2.49,-1.14,
1050,1661557318618,-0.602,0.1693,-0.6253,-13.24,-7.64,0.71,
1051,1661557318619,-0.8178,0.3314,0.3137,-14.05,13.34,1.5,
1052,1661557318619,-0.8251,0.2724,0.4714,-14.56,24.32,-1.32,
1053,1661557318620,-0.6962,0.0019,-0.6243,-11.86,5.8,-3.32,
1054,1661557318620,-0.7358,-0.0025,-0.4754,-14.24,12.57,-2.15,
1055,1661557318621,-0.9311,0.2172,0.4158,-9.95,10.04,-1.05,
1056,1661557318621,-0.8515,-0.0372,-0.0393,-11.15,4.87,3.97,
1057,1661557318621,-0.8735,-0.2701,-0.5086,-12.76,1.16,-1.32,
1058,1661557318622,-0.9194,-0.1485,0.0808,-13.96,5.3,-2.05,
1059,1661557318623,-1.0053,-0.1964,0.22,-13.55,-1.55,2.23,
1060,1661557318623,-0.8383,-0.3326,-0.259,-12.36,-12.37,3.79,
1061,1661557318624,-1.0531,-0.3087,0.0925,-20.65,-6.04,2.87,
1062,1661557318624,-1.0004,-0.2364,0.4289,-19.55,11.98,5.07,
1063,1661557318624,-1.1112,-0.2315,0.2273,-18.23,6.73,5.16,
1064,1661557318625,-1.0654,-0.1876,-0.0198,-20.95,0.47,2.87,
1065,1661557318625,-1.1542,-0.0939,0.1077,-24.25,-9.75,1.68,
1066,1661557318626,-1.1542,-0.0621,0.4441,-22.14,1.83,3.35,
1067,1661557318626,-1.1088,-0.1378,-0.2966,-20.95,-6.71,0.6,
1068,1661557318627,-1.102,0.1415,-0.0745,-22.66,9.95,3.51,
1069,1661557318627,-1.2465,0.122,0.3161,-22.74,8.01,5.27,
1070,1661557318627,-1.2621,0.0487,0.0603,-26.53,-2.49,1.7,
1071,1661557318628,-1.1957,-0.0089,-0.2517,-25.94,-18.13,3.62,
1072,1661557318628,-1.2875,0.1933,0.3313,-26.95,-6.21,2.32,
1073,1661557318628,-1.2626,0.078,0.3655,-28.34,-4.26,1.88,
1074,1661557318630,-1.2382,0.0219,0.1326,-30.35,2.84,-4.69,
1075,1661557318630,-1.2543,0.0551,0.3064,-30.93,5.8,-3.58,
1076,1661557318630,-1.2948,0.0702,0.4275,-31.13,7.42,-4.68,
1077,1661557318631,-1.2704,0.0136,0.4392,-28.55,4.96,-4.79,
1078,1661557318631,-1.2275,-0.1109,0.1199,-29.54,2.34,-4.95,
1079,1661557318632,-1.1786,0.0321,0.1023,-29.83,3.69,-6.59,
1080,1661557318632,-1.205,-0.0689,0.3039,-32.84,7.16,-6.51,
1081,1661557318633,-1.247,-0.1827,0.0452,-33.25,3.1,-0.5,
1082,1661557318633,-1.1567,-0.1319,-0.1209,-33.54,-5.87,-3.58,
1083,1661557318634,-1.1025,-0.0055,0.2429,-37.12,-3.16,4.81,
1084,1661557318634,-1.1069,0.0058,0.4197,-33.95,0.81,2.51,
1085,1661557318634,-1.0331,0.1068,-0.0637,-35.96,-1.72,0.05,
1086,1661557318635,-0.9985,0.2558,0.2327,-35.84,15.11,-0.5,
1087,1661557318635,-1.0766,0.3031,0.3215,-35.46,5.63,-0.32,
1088,1661557318636,-0.9985,0.3314,0.176,-32.15,7.33,-0.5,
1089,1661557318636,-0.9789,0.3808,0.1399,-30.53,0.81,-4.88,
1090,1661557318637,-0.8798,0.3939,0.051,-27.76,7.75,-1.32,
1091,1661557318637,-0.9047,0.4726,0.0544,-23.45,16.71,-2.24,
1092,1661557318638,-0.873,0.3983,-0.0725,-24.95,13.08,-2.77,
1093,1661557318638,-0.8153,0.3246,-0.0847,-29.33,3.77,-5.59,
1094,1661557318639,-0.8036,0.4003,0.133,-26.75,7.42,-4.05,
1095,1661557318639,-0.7758,0.2694,-0.1228,-22.35,5.46,-4.69,
1096,1661557318640,-0.7416,0.2836,-0.159,-24.03,14.94,-7.04,
1097,1661557318640,-0.7441,0.1898,0.0984,-20.86,18.92,-2.33,
1098,1661557318640,-0.7987,0.1415,0.0574,-24.25,11.81,-0.13,
1099,1661557318641,-0.8027,0.162,-0.1233,-21.45,1.16,1.24,
1100,1661557318641,-0.7353,0.0189,0.0535,-19.33,5.8,-0.3,
1101,1661557318643,-0.7895,0.0912,0.1057,-17.26,12.32,-1.51,
1102,1661557318643,-0.6816,0.1156,-0.093,-19.13,15.61,3.06,
1103,1661557318643,-0.8012,0.0863,-0.1013,-18.86,8.68,3.33,
1104,1661557318643,-0.8578,-0.0133,-0.0222,-17.14,7.33,-0.3,
1105,1661557318644,-0.6947,-0.0016,0.009,-17.76,0.98,7.34,
1106,1661557318644,-0.7709,0.1068,-0.0589,-21.15,-14.57,2.87,
1107,1661557318645,-0.9657,0.0292,-0.0466,-22.35,-1.63,7.34,
1108,1661557318645,-0.663,-0.0724,-0.4002,-10.76,16.47,8.26,
1109,1661557318646,-0.9076,0.2372,0.0661,-8.04,27.21,2.25,
1110,1661557318646,-1.016,0.246,0.4182,-18.55,21.79,7.25,
1111,1661557318646,-0.9281,-0.0675,-0.1951,-23.54,-17.29,4.25,
1112,1661557318648,-0.85,0.0844,-0.3303,-14.34,-10.51,3.42,
1113,1661557318648,-1.1547,0.224,0.3279,-9.45,9.28,4.08,
1114,1661557318648,-0.9887,-0.1773,-0.1926,-14.36,6.65,2.87,
1115,1661557318648,-1.0478,0.0331,0.1135,-22.35,14.51,2.23,
1116,1661557318649,-1.1855,0.1786,0.279,-22.35,3.36,2.23,
1117,1661557318649,-1.0776,-0.0753,0.0129,-19.53,-4.42,3.26,
1118,1661557318650,-0.9975,-0.1417,-0.0208,-16.56,0.9,3.79,
1119,1661557318650,-1.121,-0.0802,0.2087,-18.86,5.8,5.25,
1120,1661557318651,-1.2196,-0.1324,-0.0637,-21.65,2.6,3.15,
1121,1661557318651,-1.227,-0.232,0.1999,-23.53,3.94,5.7,
1122,1661557318651,-1.2836,-0.1852,0.196,-23.15,-0.36,1.96,
1123,1661557318653,-1.3144,-0.1847,-0.012,-24.44,-8.24,1.33,
1124,1661557318653,-1.1567,-0.2994,0.0915,-24.73,-10.94,4.45,
1125,1661557318653,-1.3837,-0.3517,0.6077,-28.64,-7.05,4.72,
1126,1661557318653,-1.1484,-0.1749,-0.1087,-27.34,-12.54,3.24,
1127,1661557318654,-1.3798,-0.1739,0.2107,-28.46,9.61,7.71,
1128,1661557318654,-1.2211,-0.0978,0.7175,-33.54,4.87,5.44,
1129,1661557318655,-1.2631,-0.0694,-0.1267,-36.94,-8.65,3.97,
1130,1661557318656,-1.2255,0.1176,0.1785,-30.23,-5.95,8.09,
1131,1661557318656,-1.248,0.101,0.3821,-29.75,-6.12,3.33,
1132,1661557318656,-1.2016,0.0521,0.3957,-29.75,6.56,5.07,
1133,1661557318657,-1.2719,0.2401,0.0427,-32.75,-0.53,4.34,
1134,1661557318657,-1.1557,0.2079,0.1194,-34.74,3.36,1.06,
1135,1661557318657,-1.1957,0.1781,0.469,-35.14,4.37,4.8,
1136,1661557318658,-1.2021,0.1952,0.3435,-36.44,3.36,-1.95,
1137,1661557318659,-1.08,0.2738,-0.0921,-32.35,-3.16,1.24,
1138,1661557318659,-1.1542,0.3124,0.3103,-32.64,17.06,3.07,
1139,1661557318660,-1.0981,0.2943,0.383,-30.33,14.86,-1.95,
1140,1661557318660,-0.9491,0.2294,-0.1604,-34.84,11.22,-0.04,
1141,1661557318660,-0.9438,0.2719,0.0466,-34.55,5.3,-4.6,
1142,1661557318661,-1.0663,0.1019,0.1726,-30.53,11.14,0.62,
1143,1661557318661,-0.9345,0.1337,0.0051,-31.33,4.87,-3.4,
1144,1661557318662,-0.8393,0.2836,-0.218,-28.03,1.33,-3.4,
1145,1661557318662,-0.9692,0.163,0.2312,-27.24,7.92,-2.59,
1146,1661557318663,-0.7826,0.1093,0.071,-26.14,4.79,0.8,
1147,1661557318663,-0.8105,0.0683,-0.0183,-28.24,3.43,-1.78,
1148,1661557318664,-0.8144,0.0883,0.241,-28.85,6.56,-1.78,
1149,1661557318664,-0.7704,0.1425,0.3059,-27.05,11.38,4.98,
1150,1661557318664,-0.662,0.2504,0.1111,-24.55,13.0,1.5,
1151,1661557318665,-0.7714,0.1483,-0.1878,-22.95,13.0,1.96,
1152,1661557318665,-0.7128,0.1229,0.0261,-20.36,19.43,3.79,
1153,1661557318666,-0.7016,0.2655,0.1199,-22.35,15.78,5.79,
1154,1661557318666,-0.7719,0.3075,-0.2268,-19.55,11.55,1.06,
1155,1661557318667,-0.7245,0.2802,-0.4602,-17.35,-5.69,3.42,
1156,1661557318667,-0.6396,0.2875,-0.158,-20.95,4.53,2.97,
1157,1661557318668,-0.7616,0.3256,0.2864,-18.25,9.78,2.6,
1158,1661557318668,-0.6972,0.163,-0.5076,-18.88,-2.33,1.06,
1159,1661557318669,-0.7338,0.2865,-0.1692,-16.05,5.89,2.05,
1160,1661557318669,-0.8627,0.3588,0.5901,-16.16,15.7,3.06,
1161,1661557318670,-0.8466,0.1825,0.1047,-15.76,3.19,2.42,
1162,1661557318670,-0.7035,-0.0372,-0.5989,-15.12,3.69,0.71,
1163,1661557318671,-0.8066,0.1835,0.2478,-13.35,14.01,-0.32,
1164,1661557318671,-0.7944,0.0258,0.095,-13.55,8.18,1.42,
1165,1661557318671,-0.8505,-0.315,-0.4597,-13.15,2.93,4.98,
1166,1661557318673,-0.9272,-0.2652,0.0442,-17.14,3.27,1.7,
1167,1661557318673,-1.0561,-0.1124,0.2688,-18.84,3.27,5.62,
1168,1661557318673,-1.018,-0.2062,0.0881,-18.25,-6.28,3.06,
1169,1661557318673,-0.9672,-0.4786,-0.1868,-19.76,-10.51,4.98,
1170,1661557318674,-1.0361,-0.3458,0.2024,-20.54,-8.24,6.63,
1171,1661557318674,-1.1034,-0.2198,0.2966,-23.06,0.31,5.16,
1172,1661557318675,-1.0385,-0.2975,-0.0388,-22.66,5.22,3.88,
1173,1661557318675,-1.0693,-0.1471,0.0764,-22.34,-0.29,4.43,
1174,1661557318676,-1.3173,-0.0738,0.3596,-26.34,5.89,5.71,
1175,1661557318676,-1.1684,-0.0934,0.2234,-23.96,-1.55,3.61,
1176,1661557318676,-1.1493,-0.0567,-0.3543,-24.66,-8.74,1.78,
1177,1661557318677,-1.2323,0.2509,0.2693,-26.55,-3.16,0.33,
1178,1661557318677,-1.2861,0.0878,0.1228,-24.44,-5.52,1.5,
1179,1661557318678,-1.2026,-0.1017,-0.1194,-24.35,-7.22,-1.87,
1180,1661557318678,-1.2958,0.1864,0.3782,-30.35,-5.61,1.87,
1181,1661557318679,-1.3193,0.2177,0.4436,-33.75,-9.17,1.78,
1182,1661557318679,-1.2748,0.0307,0.2624,-30.94,-5.52,-0.86,
1183,1661557318680,-1.3085,0.037,0.2761,-30.33,3.43,-2.15,
1184,1661557318680,-1.3139,0.0941,0.3191,-30.46,4.12,-1.51,
1185,1661557318680,-1.2778,0.0351,0.4123,-30.14,11.22,-1.49,
1186,1661557318681,-1.1884,-0.1398,0.1682,-33.13,5.89,-4.97,
1187,1661557318682,-1.1928,0.0272,0.0495,-35.81,2.0,-2.85,
1188,1661557318682,-1.163,0.0863,0.1687,-35.75,-0.87,-0.68,
1189,1661557318683,-1.2958,-0.1144,0.259,-35.32,-1.8,-0.39,
1190,1661557318683,-1.2372,-0.1183,0.008,-35.84,-7.81,4.25,
1191,1661557318684,-1.1742,0.0214,0.2029,-33.74,0.47,4.89,
1192,1661557318684,-1.2084,0.0692,0.5188,-35.05,9.86,1.96,
1193,1661557318684,-1.0766,0.119,0.1169,-39.75,4.2,5.51,
1194,1661557318685,-1.0224,0.1679,0.0681,-42.83,4.96,3.8,
1195,1661557318685,-0.9643,0.3085,0.303,-39.75,3.1,5.88,
1196,1661557318686,-0.9487,0.349,0.1892,-33.94,0.73,7.73,
1197,1661557318686,-1.0048,0.4345,0.1125,-25.54,7.16,0.89,
1198,1661557318687,-0.9286,0.4418,0.0554,-24.25,10.12,-0.5,
1199,1661557318687,-0.7924,0.432,-0.0901,-26.86,18.16,-2.15,
1200,1661557318687,-0.8173,0.4252,0.0349,-26.34,14.86,1.87,
1201,1661557318688,-0.8407,0.246,-0.2576,-24.55,3.01,2.78,
1202,1661557318688,-0.7963,0.3178,-0.0506,-27.25,8.35,2.14,
1203,1661557318689,-0.724,0.3886,0.0818,-28.35,9.19,-2.05,
1204,1661557318689,-0.7758,0.2763,-0.1482,-27.34,5.3,0.6,
1205,1661557318690,-0.6801,0.2733,-0.1174,-24.44,12.48,3.7,
1206,1661557318690,-0.7655,0.121,0.1667,-21.35,13.08,0.14,
1207,1661557318691,-0.7719,0.1879,0.0105,-18.54,10.21,4.54,
1208,1661557318691,-0.7709,0.1557,-0.0828,-19.74,7.92,0.89,
1209,1661557318693,-0.7973,0.0399,0.1238,-20.75,13.84,5.16,
1210,1661557318693,-0.7958,0.0604,0.1018,-23.33,9.86,1.33,
1211,1661557318693,-0.6342,0.0902,-0.095,-22.23,11.38,5.8,
1212,1661557318693,-0.7392,0.0365,0.0388,-16.65,8.42,2.05,
1213,1661557318693,-0.7826,0.0521,-0.0208,-15.55,10.12,5.79,
1214,1661557318695,-0.5243,0.0155,-0.2942,-19.16,-4.18,4.52,
1215,1661557318695,-0.4828,0.1684,-0.0193,-21.64,-18.39,4.26,
1216,1661557318695,-0.8891,0.0048,0.0681,-20.55,8.85,6.25,
1217,1661557318695,-0.7187,-0.0987,-0.5193,-10.36,10.55,1.78,
1218,1661557318696,-0.8241,0.1703,-0.3904,-9.84,25.51,1.06,
1219,1661557318696,-0.935,0.1347,0.5246,-22.93,12.41,0.16,
1220,1661557318697,-0.703,-0.0851,-0.3777,-18.86,-15.67,-0.32,
1221,1661557318697,-0.8193,0.0141,-0.1795,-16.43,-6.54,2.61,
1222,1661557318698,-1.1137,0.0141,0.3225,-15.06,9.52,3.88,
1223,1661557318698,-0.9794,-0.1803,-0.1658,-16.24,8.01,0.34,
1224,1661557318699,-1.0004,-0.0802,-0.1038,-24.55,7.59,-1.78,
1225,1661557318699,-1.1811,0.1405,0.1706,-22.45,-7.81,1.24,
1226,1661557318700,-0.998,-0.1554,-0.0935,-16.36,-8.24,0.6,
1227,1661557318700,-1.059,-0.1354,0.1404,-19.76,7.75,4.16,
1228,1661557318701,-1.2001,-0.129,0.0256,-23.73,6.49,3.71,
1229,1661557318701,-1.2294,-0.2052,-0.0374,-23.24,-4.01,4.16,
1230,1661557318701,-1.2284,-0.2799,0.3557,-24.25,-7.48,0.69,
1231,1661557318702,-1.2616,-0.2457,0.3386,-25.44,-13.3,1.16,
1232,1661557318702,-1.2865,-0.1974,-0.0613,-28.24,-6.12,1.42,
1233,1661557318703,-1.226,-0.3502,0.2727,-28.03,7.66,2.16,
1234,1661557318703,-1.3998,-0.2818,0.6321,-28.75,-3.16,2.32,
1235,1661557318704,-1.1352,-0.1671,-0.2346,-36.44,-38.25,4.43,
1236,1661557318704,-1.3085,-0.1891,0.3157,-32.93,0.31,5.79,
1237,1661557318705,-1.1689,-0.0348,0.5691,-26.44,13.0,6.15,
1238,1661557318705,-1.2035,-0.0426,-0.1775,-32.73,11.22,9.18,
1239,1661557318706,-1.2382,0.0707,0.0539,-37.64,-2.23,7.89,
1240,1661557318706,-1.3202,0.1522,0.3376,-36.22,-12.46,8.28,
1241,1661557318706,-1.2065,0.0648,0.3796,-31.56,-4.76,7.34,
1242,1661557318707,-1.2372,0.224,-0.1257,-34.13,-4.09,4.08,
1243,1661557318708,-1.1464,0.1405,0.1599,-36.13,9.11,5.97,
1244,1661557318708,-1.2236,0.1176,0.4631,-36.65,11.48,6.25,
1245,1661557318708,-1.1894,0.1972,0.2576,-34.33,7.42,3.53,
1246,1661557318709,-1.1191,0.2772,-0.054,-35.95,-0.03,1.87,
1247,1661557318709,-1.1488,0.3905,0.4158,-35.95,3.77,-3.69,
1248,1661557318710,-1.0639,0.2196,0.3645,-34.03,6.82,0.52,
1249,1661557318710,-0.9975,0.2406,-0.0257,-36.35,8.01,-1.23,
1250,1661557318711,-0.9887,0.223,0.1247,-34.64,10.88,-1.32,
1251,1661557318711,-1.0527,0.1791,0.2405,-32.03,11.72,-0.12,
1252,1661557318712,-0.873,0.2431,0.0334,-30.33,4.7,-0.5,
1253,1661557318712,-0.8598,0.2333,-0.1536,-30.55,2.67,-0.96,
1254,1661557318713,-0.9994,0.1269,0.1638,-30.73,5.39,0.52,
1255,1661557318713,-0.8388,0.1327,0.052,-30.64,7.25,3.35,
1256,1661557318713,-0.8774,0.1249,0.0295,-28.95,5.39,0.78,
1257,1661557318714,-0.871,0.1142,0.0945,-26.66,4.63,1.15,
1258,1661557318714,-0.7758,0.1869,0.2307,-28.05,11.64,2.97,
1259,1661557318715,-0.7592,0.224,0.032,-25.65,12.24,0.97,
1260,1661557318715,-0.8193,0.1386,-0.1677,-25.76,9.45,-1.6,
1261,1661557318716,-0.7421,0.2938,0.1379,-23.45,11.9,1.15,
1262,1661557318716,-0.7148,0.2851,0.2366,-20.16,15.44,1.87,
1263,1661557318716,-0.7919,0.2821,-0.0432,-20.74,6.32,2.05,
1264,1661557318717,-0.6464,0.2611,-0.4876,-22.67,-4.18,4.25,
1265,1661557318718,-0.6977,0.3871,0.0647,-24.35,11.64,2.97,
1266,1661557318718,-0.7958,0.2689,0.1194,-18.36,16.8,1.68,
1267,1661557318718,-0.5878,0.2191,-0.6253,-16.05,3.1,1.42,
1268,1661557318719,-0.6879,0.3407,-0.3923,-18.55,8.26,3.15,
1269,1661557318719,-0.8461,0.4188,0.4714,-19.53,15.2,-2.48,
1270,1661557318720,-0.7743,0.0687,-0.2864,-17.94,0.9,-3.21,
1271,1661557318720,-0.6811,0.0976,-0.3728,-16.43,9.52,-2.95,
1272,1661557318721,-0.9111,0.2489,0.2854,-14.74,10.29,-2.31,
1273,1661557318721,-0.8793,-0.1275,-0.1453,-14.37,9.11,1.06,
1274,1661557318722,-0.8949,-0.2882,-0.4109,-13.14,-5.28,0.51,
1275,1661557318722,-0.9999,-0.0968,0.1594,-17.94,-0.53,0.16,
1276,1661557318723,-1.0551,-0.0924,0.3132,-17.06,-4.59,-1.23,
1277,1661557318723,-1.0092,-0.3585,-0.0554,-18.84,-2.32,0.07,
1278,1661557318724,-1.0839,-0.4908,-0.0891,-21.24,-1.72,-0.3,
1279,1661557318724,-1.0414,-0.2023,0.344,-23.24,-1.3,5.27,
1280,1661557318724,-1.1645,-0.255,0.2312,-23.35,-8.83,5.51,
1281,1661557318726,-1.0986,-0.2892,-0.1233,-23.15,-11.37,6.15,
1282,1661557318726,-1.2817,-0.0509,0.2058,-28.73,2.09,7.71,
1283,1661557318726,-1.1635,-0.0699,0.2883,-24.02,6.15,6.35,
1284,1661557318726,-1.1498,-0.1778,-0.115,-24.14,-7.55,8.9,
1285,1661557318727,-1.164,0.0712,-0.2088,-23.94,-3.25,6.8,
1286,1661557318727,-1.2997,0.2143,0.3699,-26.23,-3.66,4.61,
1287,1661557318729,-1.2162,-0.0538,-0.0667,-27.44,-12.21,6.25,
1288,1661557318729,-1.2914,0.0419,-0.0125,-28.64,-11.53,8.55,
1289,1661557318729,-1.311,0.2582,0.4216,-28.95,-4.42,3.33,
1290,1661557318729,-1.2621,0.0409,0.2488,-29.75,-4.51,7.25,
1291,1661557318730,-1.2953,0.018,0.2771,-30.35,0.73,3.15,
1292,1661557318730,-1.2572,0.0741,0.341,-31.43,0.47,3.9,
1293,1661557318730,-1.2533,0.1293,0.3201,-30.24,5.56,1.42,
1294,1661557318731,-1.2587,-0.0821,0.3035,-32.23,5.22,3.53,
1295,1661557318731,-1.2646,-0.1031,0.1667,-31.83,5.56,-0.12,
1296,1661557318732,-1.1484,0.0531,0.0652,-34.03,0.31,1.35,
1297,1661557318732,-1.0795,0.0097,0.1194,-34.44,2.67,0.52,
1298,1661557318734,-1.269,-0.1783,0.1848,-35.54,-2.73,0.07,
1299,1661557318734,-1.1469,-0.1622,0.032,-37.44,-7.22,-0.13,
1300,1661557318734,-1.186,-0.0245,0.3215,-39.03,-3.75,3.8,
1301,1661557318734,-1.0707,0.0551,0.3655,-38.44,-3.32,4.34,
1302,1661557318735,-1.0795,0.1493,0.0959,-39.12,-1.13,-1.67,
1303,1661557318735,-1.0121,0.2929,0.2453,-38.13,7.59,-0.21,
1304,1661557318736,-0.9823,0.2909,0.1662,-36.93,4.79,-0.85,
1305,1661557318736,-0.9311,0.3524,0.1809,-34.64,13.75,0.8,
1306,1661557318737,-0.956,0.4433,0.1994,-31.65,13.25,-4.79,
1307,1661557318737,-0.8144,0.3895,-0.1682,-28.75,7.66,-3.69,
1308,1661557318737,-0.8617,0.4589,-0.0227,-28.35,8.01,-4.24,
1309,1661557318738,-0.8739,0.4008,-0.0266,-30.55,6.99,-4.79,
1310,1661557318738,-0.8237,0.3622,-0.1091,-30.14,1.5,-1.58,
1311,1661557318739,-0.7387,0.4262,-0.0403,-29.25,10.71,-0.96,
1312,1661557318739,-0.81,0.2768,-0.034,-24.35,9.28,-0.68,
1313,1661557318740,-0.7113,0.2157,0.0281,-22.84,15.11,-2.85,
1314,1661557318740,-0.7519,0.1225,0.0178,-25.34,12.57,0.6,
1315,1661557318741,-0.7929,0.1493,0.0076,-25.56,14.01,0.23,
1316,1661557318741,-0.8046,0.1552,0.0027,-24.43,9.28,1.78,
1317,1661557318743,-0.7187,0.038,0.0325,-24.76,15.11,-2.15,
1318,1661557318743,-0.8256,0.0331,-0.0393,-23.13,9.28,-2.5,
1319,1661557318743,-0.6283,0.1561,-0.1384,-22.93,9.86,-1.86,
1320,1661557318743,-0.7641,-0.0177,0.0364,-20.86,6.4,2.69,
1321,1661557318744,-0.8163,-0.0177,-0.0569,-20.45,6.06,1.15,
1322,1661557318745,-0.6947,-0.0001,-0.1692,-21.45,14.01,2.51,
1323,1661557318745,-0.7807,0.0863,0.0251,-21.94,14.18,0.89,
1324,1661557318745,-0.6313,0.1552,0.3,-18.75,3.77,5.42,
1325,1661557318745,-0.8188,-0.089,-0.1477,-23.15,-29.89,3.15,
1326,1661557318746,-0.7358,0.06,-0.4456,-24.23,-21.68,4.54,
1327,1661557318746,-0.9574,0.1903,0.5237,-12.74,31.6,1.52,
1328,1661557318747,-0.8642,-0.1144,-0.2703,-15.35,19.59,3.51,
1329,1661557318747,-0.7958,0.0228,-0.4329,-22.05,-4.09,5.51,
1330,1661557318748,-1.1474,0.1425,0.3904,-21.04,-3.92,4.98,
1331,1661557318748,-1.0155,-0.0616,0.2287,-18.45,-12.71,3.61,
1332,1661557318748,-0.9716,-0.087,-0.2434,-18.74,-5.35,1.88,
1333,1661557318749,-1.1044,0.0653,0.196,-23.15,11.72,3.88,
1334,1661557318749,-1.0409,-0.1241,0.0964,-22.34,0.31,2.07,
1335,1661557318750,-1.0273,-0.1437,0.1399,-20.54,-0.96,4.34,
1336,1661557318750,-1.2289,-0.1324,0.1379,-21.35,-3.16,3.06,
1337,1661557318751,-1.2821,-0.1241,-0.0369,-23.96,-3.16,4.8,
1338,1661557318751,-1.1801,-0.2701,0.2922,-25.96,-2.23,5.79,
1339,1661557318752,-1.2157,-0.2262,0.3786,-26.86,0.31,6.15,
1340,1661557318752,-1.3007,-0.1432,-0.0374,-27.45,-7.22,4.34,
1341,1661557318753,-1.0424,-0.3248,0.052,-28.44,1.74,5.25,
1342,1661557318753,-1.1972,-0.2921,0.6067,-29.24,12.65,7.09,
1343,1661557318754,-1.1205,-0.0963,-0.011,-31.16,3.08,4.8,
1344,1661557318754,-1.2485,-0.1822,0.1716,-34.45,-7.31,9.53,
1345,1661557318755,-1.2187,-0.0597,0.6809,-40.33,-14.57,3.35,
1346,1661557318755,-1.3525,-0.0782,-0.0735,-34.55,-15.0,6.06,
1347,1661557318755,-1.1254,0.0595,-0.1614,-30.03,8.26,0.62,
1348,1661557318756,-1.3388,0.1454,0.2717,-37.54,10.62,2.07,
1349,1661557318756,-1.2416,0.1283,0.4748,-38.64,9.78,3.15,
1350,1661557318758,-1.2367,0.2055,-0.1082,-36.45,-7.22,7.89,
1351,1661557318758,-1.1152,0.1698,0.0603,-35.23,-5.78,6.61,
1352,1661557318758,-1.2187,0.1991,0.468,-37.12,-0.46,4.63,
1353,1661557318758,-1.2475,0.2147,0.3225,-38.74,8.35,2.87,
1354,1661557318760,-1.1503,0.2694,-0.0447,-35.95,4.96,5.35,
1355,1661557318760,-1.1235,0.3344,0.2576,-35.05,13.34,2.32,
1356,1661557318760,-1.0878,0.2269,0.3415,-30.84,6.99,2.52,
1357,1661557318760,-0.9936,0.226,-0.0642,-35.54,5.8,1.26,
1358,1661557318761,-0.9565,0.247,-0.0755,-37.25,1.16,-2.86,
1359,1661557318761,-0.9941,0.1742,0.1618,-33.23,12.74,-0.67,
1360,1661557318763,-0.9164,0.2235,0.0618,-34.06,8.42,-1.87,
1361,1661557318763,-0.8598,0.2333,-0.1365,-32.75,2.84,-1.05,
1362,1661557318763,-0.9809,0.1474,0.1247,-30.03,5.3,0.07,
1363,1661557318765,-0.7865,0.1391,0.0744,-28.05,6.4,1.96,
1364,1661557318765,-0.8993,0.0858,0.0056,-29.24,3.19,2.42,
1365,1661557318765,-0.8866,0.1347,0.0867,-29.95,8.35,0.23,
1366,1661557318765,-0.7782,0.2006,0.2234,-29.94,12.82,2.14,
1367,1661557318765,-0.7568,0.2304,0.0368,-27.65,14.01,0.6,
1368,1661557318765,-0.8002,0.1142,-0.1795,-27.04,11.31,6.54,
1369,1661557318765,-0.8002,0.0966,-0.0969,-24.84,19.67,1.35,
1370,1661557318766,-0.7348,0.2855,0.1423,-24.15,14.86,-0.59,
1371,1661557318767,-0.7533,0.3227,-0.0789,-22.25,6.15,-1.32,
1372,1661557318767,-0.7548,0.2738,-0.4085,-18.66,3.94,-1.23,
1373,1661557318768,-0.6488,0.3417,-0.1052,-22.86,8.42,-0.5,
1374,1661557318768,-0.7548,0.3153,0.1492,-21.96,12.82,0.78,
1375,1661557318768,-0.6464,0.2128,-0.4475,-22.16,3.36,-1.23,
1376,1661557318769,-0.6816,0.2763,-0.4353,-21.35,-0.79,-0.13,
1377,1661557318769,-0.8251,0.3925,0.3445,-19.55,13.41,3.24,
1378,1661557318770,-0.8417,0.1449,-0.0286,-17.14,5.56,-2.68,
1379,1661557318770,-0.6591,0.0438,-0.491,-15.26,13.34,-2.41,
1380,1661557318771,-0.8256,0.2133,0.1828,-16.14,16.63,-4.04,
1381,1661557318771,-0.8427,-0.0602,-0.0169,-14.95,9.02,0.14,
1382,1661557318772,-0.8598,-0.298,-0.4915,-17.53,-7.48,0.89,
1383,1661557318772,-0.912,-0.1485,0.0808,-18.74,-1.3,1.61,
1384,1661557318773,-1.0458,-0.1358,0.2639,-19.26,-1.22,-1.14,
1385,1661557318773,-1.0253,-0.2594,-0.0086,-20.16,-7.14,4.06,
1386,1661557318773,-1.0063,-0.5211,-0.1565,-20.84,-8.74,4.98,
1387,1661557318774,-1.0048,-0.2608,0.3596,-24.25,-1.3,8.53,
1388,1661557318775,-1.1669,-0.234,0.26,-23.13,-7.14,7.27,
1389,1661557318776,-1.1117,-0.3028,-0.1326,-25.34,-8.91,8.35,
1390,1661557318776,-1.2006,-0.026,0.1853,-27.24,0.47,8.46,
1391,1661557318777,-1.1654,-0.088,0.3406,-23.35,8.42,10.08,
1392,1661557318777,-1.0961,-0.1935,-0.3757,-24.43,-6.97,8.44,
1393,1661557318777,-1.1562,-0.0235,-0.2771,-29.95,-4.01,7.71,
1394,1661557318777,-1.2675,0.1869,0.302,-27.13,-3.83,4.72,
1395,1661557318779,-1.2343,-0.0196,-0.0823,-32.03,-9.5,2.32,
1396,1661557318779,-1.2616,-0.045,-0.0803,-31.65,-10.68,2.42,
1397,1661557318779,-1.3276,0.1933,0.4455,-33.05,-8.24,1.06,
1398,1661557318779,-1.3031,0.0619,0.28,-30.46,-11.44,2.87,
1399,1661557318780,-1.2934,-0.0045,0.3201,-30.17,-0.38,0.33,
1400,1661557318780,-1.2792,0.0712,0.3894,-30.55,4.53,2.51,
1401,1661557318780,-1.2792,0.1024,0.3777,-32.65,6.32,0.97,
1402,1661557318781,-1.2519,-0.0582,0.3445,-35.45,7.66,-0.77,
1403,1661557318782,-1.2372,-0.1349,0.2619,-36.94,4.7,0.69,
1404,1661557318782,-1.1933,0.0102,0.134,-37.55,0.23,0.42,
1405,1661557318782,-1.185,-0.0777,0.1496,-36.94,-0.62,-0.13,
1406,1661557318783,-1.3046,-0.1461,0.1077,-35.83,-0.79,2.89,
1407,1661557318783,-1.2021,-0.11,0.03,-37.93,-4.85,-0.3,
1408,1661557318784,-1.1947,0.0482,0.2898,-41.35,-6.38,3.06,
1409,1661557318784,-1.1498,0.0761,0.448,-41.44,-3.25,4.25,
1410,1661557318785,-1.1039,0.1547,0.1916,-40.63,-2.82,1.7,
1411,1661557318785,-1.0082,0.3524,0.2239,-39.12,7.42,3.44,
1412,1661557318786,-1.0214,0.3817,0.1843,-37.12,6.65,1.61,
1413,1661557318786,-0.9198,0.3695,0.2434,-34.94,14.51,3.51,
1414,1661557318786,-1.0273,0.4711,0.2268,-31.75,16.13,3.51,
1415,1661557318787,-0.8852,0.4481,-0.1257,-29.14,10.88,1.42,
1416,1661557318787,-0.8842,0.4711,-0.0672,-26.05,10.21,2.05,
1417,1661557318788,-0.9052,0.3183,-0.0388,-27.24,7.25,2.25,
1418,1661557318788,-0.7846,0.348,-0.1585,-32.64,3.69,2.98,
1419,1661557318789,-0.7211,0.4174,-0.0999,-30.73,7.66,3.44,
1420,1661557318789,-0.7607,0.3217,-0.0794,-27.85,2.0,2.97,
1421,1661557318790,-0.7279,0.224,-0.0208,-25.34,8.42,-1.6,
1422,1661557318790,-0.8041,0.1342,0.0735,-23.13,9.19,3.26,
1423,1661557318791,-0.8632,0.1566,0.1252,-23.65,11.9,-0.77,
1424,1661557318791,-0.8622,0.1859,0.0559,-26.34,7.59,-0.76,
1425,1661557318793,-0.7865,0.0834,0.073,-25.76,13.93,1.59,
1426,1661557318793,-0.8573,-0.0099,0.0408,-23.45,7.08,3.7,
1427,1661557318793,-0.7528,0.12,-0.0291,-23.13,15.54,0.25,
1428,1661557318793,-0.8754,0.0521,0.0095,-21.94,11.64,2.52,
1429,1661557318793,-0.7768,0.0004,-0.0491,-22.16,11.48,5.61,
1430,1661557318794,-0.6752,-0.0221,-0.2522,-18.74,4.87,7.63,
1431,1661557318794,-0.5297,0.059,-0.384,-20.05,15.44,5.79,
1432,1661557318795,-0.5546,0.2152,0.0925,-18.43,25.51,1.44,
1433,1661557318795,-0.8637,-0.0543,-0.0877,-20.03,1.24,5.25,
1434,1661557318796,-0.6244,0.0619,-0.4871,-26.95,-26.0,7.71,
1435,1661557318796,-0.9125,0.2328,0.4543,-11.14,6.73,2.51,
1436,1661557318797,-0.9111,-0.1471,-0.1482,-10.47,11.48,3.06,
1437,1661557318797,-0.7768,0.0419,-0.531,-17.53,17.23,0.16,
1438,1661557318798,-0.8388,0.0614,0.0105,-22.86,17.73,-0.86,
1439,1661557318798,-1.0185,-0.0577,0.2522,-21.84,-7.81,1.33,
1440,1661557318799,-0.935,-0.1334,-0.302,-20.34,-15.67,3.53,
1441,1661557318799,-1.0541,0.0019,0.0901,-20.03,9.78,5.36,
1442,1661557318799,-1.0722,-0.0602,0.0183,-23.04,5.39,3.79,
1443,1661557318800,-0.998,-0.1661,-0.0286,-22.45,8.85,-0.68,
1444,1661557318800,-1.1801,-0.1603,0.0564,-24.05,-5.02,4.89,
1445,1661557318801,-1.2817,-0.1432,-0.0921,-27.63,-11.37,3.16,
1446,1661557318801,-1.184,-0.2618,0.0525,-25.24,-10.18,5.99,
1447,1661557318803,-1.1752,-0.2652,0.4162,-28.35,-1.55,0.97,
1448,1661557318803,-1.3183,-0.1383,0.112,-28.64,-7.9,2.98,
1449,1661557318803,-1.1498,-0.275,0.0803,-28.75,-2.39,2.14,
1450,1661557318803,-1.3725,-0.2926,0.6155,-34.35,-3.58,1.59,
1451,1661557318804,-1.2836,-0.0968,0.1921,-36.03,-20.67,3.06,
1452,1661557318804,-1.2358,-0.169,-0.0403,-32.94,-6.79,6.61,
1453,1661557318805,-1.2548,-0.0616,0.5432,-30.14,22.05,6.15,
1454,1661557318805,-1.391,0.0028,0.0984,-38.13,7.66,2.42,
1455,1661557318806,-1.1908,0.0023,-0.1345,-37.05,-5.52,2.51,
1456,1661557318806,-1.2587,0.1068,0.0178,-37.55,-19.39,3.06,
1457,1661557318807,-1.2113,0.1356,0.5339,-34.64,-4.94,3.79,
1458,1661557318807,-1.186,0.0995,0.0188,-35.13,-5.78,0.23,
1459,1661557318807,-1.1293,0.1659,0.0144,-33.45,5.46,2.51,
1460,1661557318808,-1.1879,0.1977,0.3415,-36.53,10.12,-1.12,
1461,1661557318808,-1.2387,0.2143,0.4739,-40.66,5.88,-0.41,
1462,1661557318810,-1.122,0.246,0.0105,-39.12,-2.39,1.7,
1463,1661557318810,-1.1025,0.2738,0.1843,-36.24,4.7,3.06,
1464,1661557318810,-1.123,0.2201,0.3093,-34.15,8.42,1.78,
1465,1661557318811,-1.0224,0.2103,0.095,-35.05,9.11,5.42,
1466,1661557318811,-0.9965,0.2269,0.0095,-36.74,5.8,4.89,
1467,1661557318811,-0.9755,0.1962,0.1013,-34.35,9.11,1.78,
1468,1661557318811,-0.9306,0.2084,0.0354,-30.53,6.9,2.23,
1469,1661557318812,-0.8573,0.1693,-0.0808,-33.43,1.5,2.23,
1470,1661557318812,-0.8769,0.1405,0.0232,-34.15,4.03,-0.96,
1471,1661557318812,-1.0282,0.1552,0.1828,-31.54,2.67,4.54,
1472,1661557318812,-0.956,0.1234,0.1018,-30.73,1.16,0.8,
1473,1661557318813,-0.8896,0.12,0.2278,-30.33,6.99,2.25,
1474,1661557318813,-0.7553,0.1874,0.1633,-32.04,7.66,2.14,
1475,1661557318814,-0.6777,0.1825,0.1033,-30.53,13.08,3.71,
1476,1661557318814,-0.7236,0.1903,-0.0647,-28.35,9.69,-0.96,
1477,1661557318815,-0.8691,0.0951,-0.0374,-25.24,11.55,5.71,
1478,1661557318815,-0.7743,0.3007,0.0744,-25.63,10.12,4.9,
1479,1661557318815,-0.7699,0.329,0.0056,-26.34,13.75,5.09,
1480,1661557318816,-0.7612,0.2748,-0.2888,-26.05,8.35,-0.59,
1481,1661557318816,-0.6532,0.286,-0.3108,-24.73,4.2,-0.12,
1482,1661557318817,-0.6801,0.3192,0.0754,-21.24,8.76,1.97,
1483,1661557318817,-0.7919,0.2514,-0.0364,-19.76,3.69,-2.77,
1484,1661557318819,-0.6405,0.2777,-0.4138,-20.45,2.09,-4.15,
1485,1661557318819,-0.8105,0.4091,0.2483,-20.43,17.23,-3.86,
1486,1661557318819,-0.7885,0.1991,0.009,-19.64,11.38,-1.87,
1487,1661557318819,-0.6034,-0.0035,-0.5379,-19.24,3.01,2.52,
1488,1661557318820,-0.7128,0.0907,-0.2561,-16.45,10.79,2.6,
1489,1661557318820,-0.8769,0.1464,0.2414,-13.24,10.29,-0.48,
1490,1661557318820,-0.9281,-0.1896,-0.2654,-12.76,-0.62,2.23,
1491,1661557318821,-0.9184,-0.2506,-0.2673,-18.05,-3.75,2.42,
1492,1661557318821,-1.0077,-0.1036,0.3074,-21.15,-1.72,4.52,
1493,1661557318822,-0.9936,-0.2721,0.0632,-21.76,-5.78,2.32,
1494,1661557318822,-0.9096,-0.4444,-0.1033,-21.85,-9.34,4.98,
1495,1661557318823,-0.9955,-0.2555,0.3518,-22.64,-2.73,4.9,
1496,1661557318823,-1.1093,-0.2135,0.2781,-21.96,1.07,11.54,
1497,1661557318825,-1.1542,-0.2877,0.1062,-26.84,5.8,8.28,
1498,1661557318825,-1.081,-0.2784,-0.1282,-27.83,0.98,4.89,
1499,1661557318825,-1.3251,-0.0392,0.3308,-27.94,6.49,5.62,
1500,1661557318825,-1.1528,-0.1163,0.0784,-26.95,-2.15,4.25,
1501,1661557318826,-1.1322,-0.0689,-0.3626,-25.74,-7.38,5.18,
1502,1661557318826,-1.2353,0.2133,0.2849,-27.83,-1.46,2.8,
1503,1661557318826,-1.2729,0.036,0.0334,-31.95,-9.34,2.97,
1504,1661557318828,-1.1659,-0.1017,-0.1414,-31.34,-12.13,4.52,
1505,1661557318828,-1.3134,0.1054,0.1545,-36.53,-3.92,4.54,
1506,1661557318828,-1.3466,0.2006,0.4563,-32.94,-3.92,1.24,
1507,1661557318828,-1.2787,0.0468,0.1955,-32.04,-2.15,2.32,
1508,1661557318829,-1.2753,0.0565,0.3572,-32.44,2.5,-1.49,
1509,1661557318829,-1.3036,0.0824,0.4324,-33.63,3.6,-2.77,
1510,1661557318831,-1.2514,0.0575,0.3855,-33.25,5.13,-2.68,
1511,1661557318831,-1.2226,-0.1642,0.2366,-34.73,1.41,-2.41,
1512,1661557318831,-1.2626,-0.0768,0.1345,-34.35,3.01,-4.69,
1513,1661557318831,-1.0903,-0.0035,0.1423,-37.35,1.41,-2.33,
1514,1661557318832,-1.2841,-0.1671,0.1443,-38.45,1.41,2.32,
1515,1661557318832,-1.2558,-0.1105,0.0129,-39.11,-6.21,0.98,
1516,1661557318833,-1.2206,0.0385,0.2473,-40.27,-4.77,-0.13,
1517,1661557318833,-1.184,0.0424,0.3777,-38.13,-1.22,-0.76,
1518,1661557318834,-0.9833,0.1151,0.2419,-41.82,-1.63,6.8,
1519,1661557318834,-0.9877,0.1928,0.0871,-42.04,1.74,2.97,
1520,1661557318834,-0.9736,0.3358,0.2771,-39.95,10.55,2.23,
1521,1661557318835,-0.9403,0.3593,0.1438,-34.53,6.56,2.78,
1522,1661557318835,-0.9643,0.4223,0.1194,-30.36,10.88,3.61,
1523,1661557318836,-0.9579,0.5277,0.1877,-29.65,16.13,3.06,
1524,1661557318836,-0.811,0.3964,-0.1536,-28.14,13.17,3.8,
1525,1661557318837,-0.8412,0.3559,-0.1116,-32.33,11.72,5.36,
1526,1661557318837,-0.8617,0.3705,-0.0691,-33.75,0.23,6.34,
1527,1661557318838,-0.727,0.4286,-0.0427,-30.44,3.77,1.68,
1528,1661557318838,-0.6864,0.4745,-0.0457,-30.04,5.05,2.6,
1529,1661557318838,-0.7997,0.2558,-0.0535,-29.43,5.3,2.87,
1530,1661557318839,-0.7172,0.1723,0.0749,-27.05,5.22,0.88,
1531,1661557318839,-0.7284,0.1435,0.0906,-27.85,6.49,-0.13,
1532,1661557318840,-0.7958,0.2016,0.073,-26.23,9.36,4.71,
1533,1661557318840,-0.851,0.2279,0.053,-23.85,9.86,6.06,
1534,1661557318842,-0.6987,0.0287,0.115,-21.16,18.92,4.16,
1535,1661557318842,-0.8393,-0.0128,0.0373,-25.63,11.72,5.53,
1536,1661557318843,-0.5951,0.142,-0.0569,-25.74,7.16,8.44,
1537,1661557318843,-0.7055,-0.0392,0.0095,-20.16,3.53,9.8,
1538,1661557318843,-0.7514,-0.0299,-0.1267,-18.54,5.56,6.08,
1539,1661557318843,-0.747,-0.0245,-0.2132,-22.14,8.68,6.99,
1540,1661557318844,-0.703,0.1068,-0.1648,-27.25,5.89,3.97,
1541,1661557318844,-0.9189,0.1254,0.2434,-23.33,-6.28,7.25,
1542,1661557318845,-0.7665,-0.0939,-0.4514,-24.87,-33.09,4.34,
1543,1661557318845,-0.8237,0.1708,-0.3596,-15.66,-1.98,7.62,
1544,1661557318845,-0.9325,0.1884,0.5793,-16.16,32.37,7.34,
1545,1661557318846,-0.7758,-0.1334,-0.3172,-18.25,13.25,6.25,
1546,1661557318846,-0.8056,0.0272,-0.1228,-28.15,-7.81,5.51,
1547,1661557318847,-1.0507,0.1825,0.3616,-26.25,-6.62,5.16,
1548,1661557318847,-0.9277,-0.1764,0.0574,-20.23,-3.25,7.8,
1549,1661557318848,-0.9887,-0.0069,-0.2078,-21.26,5.46,5.88,
1550,1661557318848,-1.1249,0.0868,0.1692,-23.25,9.19,2.14,
1551,1661557318850,-1.0043,-0.1481,-0.0847,-21.96,-1.3,4.71,
1552,1661557318850,-1.0107,-0.1373,0.0027,-26.66,-2.23,7.62,
1553,1661557318851,-1.1415,-0.1324,0.0701,-24.17,-7.72,8.08,
1554,1661557318851,-1.2533,-0.0841,-0.0237,-25.24,-6.54,7.63,
1555,1661557318851,-1.1293,-0.2892,0.091,-24.93,-3.16,4.63,
1556,1661557318851,-1.2362,-0.2213,0.3313,-26.35,-7.14,2.42,
1557,1661557318852,-1.3051,-0.1593,0.0588,-30.14,-11.53,2.78,
1558,1661557318852,-1.0595,-0.3517,0.178,-35.23,-13.4,6.26,
1559,1661557318852,-1.1996,-0.193,0.5202,-33.95,-7.31,8.35,
1560,1661557318853,-1.1445,-0.0665,0.0281,-34.65,3.69,8.9,
1561,1661557318853,-1.165,-0.17,0.1609,-27.05,13.41,7.89,
1562,1661557318855,-1.2836,-0.067,0.3513,-38.04,-1.05,3.42,
1563,1661557318855,-1.3681,0.0702,0.2776,-43.23,-22.28,7.44,
1564,1661557318855,-1.1415,0.1303,-0.1443,-37.25,-25.74,3.51,
1565,1661557318855,-1.2968,0.1591,0.2981,-31.33,3.36,-2.24,
1566,1661557318856,-1.2646,0.1913,0.385,-34.44,12.65,3.62,
1567,1661557318856,-1.186,0.2016,-0.136,-36.35,1.33,1.68,
1568,1661557318857,-1.1752,0.1933,0.3279,-38.64,4.53,3.35,
1569,1661557318857,-1.2963,0.309,0.551,-38.54,-6.28,0.05,
1570,1661557318857,-1.2221,0.2641,0.3274,-37.55,-2.73,0.69,
1571,1661557318859,-1.1215,0.2714,0.0979,-38.85,1.5,0.51,
1572,1661557318859,-1.1381,0.3422,0.363,-37.34,13.0,-2.22,
1573,1661557318860,-1.0678,0.1889,0.2453,-36.04,11.38,-1.41,
1574,1661557318860,-1.059,0.1879,0.116,-36.35,8.35,-3.78,
1575,1661557318860,-0.9755,0.2177,0.0271,-34.33,3.43,1.15,
1576,1661557318860,-1.0302,0.1747,0.0989,-34.94,4.2,0.33,
1577,1661557318861,-0.8852,0.2304,-0.0554,-36.93,-1.13,3.16,
1578,1661557318861,-0.8783,0.1679,-0.0056,-34.93,1.66,2.34,
1579,1661557318862,-1.0444,0.1298,0.1853,-32.46,2.6,3.24,
1580,1661557318862,-0.8569,0.1332,0.1443,-29.95,4.12,3.97,
1581,1661557318863,-0.933,0.0883,0.134,-28.95,3.69,-0.41,
1582,1661557318863,-0.8534,0.1391,0.2649,-34.73,7.92,5.42,
1583,1661557318863,-0.7382,0.1654,0.198,-34.15,6.4,3.61,
1584,1661557318864,-0.703,0.2143,0.053,-31.85,10.21,3.33,
1585,1661557318864,-0.7548,0.1703,-0.0608,-28.35,10.21,-0.13,
1586,1661557318865,-0.829,0.1298,0.052,-25.05,18.5,4.89,
1587,1661557318865,-0.7709,0.3134,0.0744,-26.44,14.6,0.14,
1588,1661557318866,-0.7402,0.3441,-0.1248,-28.15,13.25,-1.32,
1589,1661557318866,-0.7089,0.2787,-0.3318,-25.54,6.56,1.42,
1590,1661557318867,-0.6576,0.3231,-0.0867,-23.53,8.94,3.16,
1591,1661557318868,-0.7201,0.2733,0.0578,-23.83,8.94,-0.76,
1592,1661557318868,-0.7475,0.2235,-0.2405,-21.04,6.73,-1.12,
1593,1661557318868,-0.7392,0.2992,-0.2478,-20.03,6.32,0.52,
1594,1661557318868,-0.7909,0.3617,0.2746,-21.35,16.89,-3.14,
1595,1661557318869,-0.8285,0.078,-0.2883,-20.25,7.66,-2.33,
1596,1661557318869,-0.7055,-0.0099,-0.3718,-17.24,10.12,-4.6,
1597,1661557318870,-0.85,0.0927,0.1599,-18.45,8.09,-1.05,
1598,1661557318870,-0.8422,0.0722,0.1745,-20.65,6.06,0.78,
1599,1661557318871,-0.9218,-0.2433,-0.2937,-21.84,-4.68,2.42,
1600,1661557318871,-0.912,-0.2862,-0.0774,-22.43,1.57,4.08,
1601,1661557318872,-1.0365,-0.1627,0.2971,-22.75,-2.65,-0.22,
1602,1661557318872,-0.9423,-0.2931,-0.0637,-21.76,-3.83,0.97,
1603,1661557318873,-1.0307,-0.4757,-0.012,-23.35,1.07,2.97,
1604,1661557318873,-1.018,-0.1808,0.4573,-24.55,10.62,4.89,
1605,1661557318875,-1.2011,-0.1847,0.157,-26.03,2.43,2.14,
1606,1661557318875,-1.0561,-0.2677,-0.0715,-25.96,0.23,1.87,
1607,1661557318875,-0.9823,-0.1583,-0.0276,-29.33,-6.62,4.52,
1608,1661557318875,-1.1923,-0.0587,0.341,-31.05,3.1,3.79,
1609,1661557318875,-1.1132,-0.2047,-0.2908,-24.66,-10.86,8.44,
1610,1661557318876,-1.1191,0.0546,-0.2112,-27.44,-4.42,6.99,
1611,1661557318876,-1.2533,0.1435,0.3821,-29.92,-6.04,6.99,
1612,1661557318878,-1.2099,-0.0563,-0.1897,-30.15,-15.93,6.15,
1613,1661557318878,-1.2983,0.0243,0.1086,-36.45,-11.7,3.51,
1614,1661557318878,-1.2929,0.0932,0.4704,-37.54,-3.58,0.8,
1615,1661557318878,-1.2895,0.1151,0.3767,-34.53,-8.57,7.27,
1616,1661557318879,-1.2812,-0.0318,0.156,-32.64,-4.18,2.42,
1617,1661557318879,-1.2807,0.0145,0.449,-32.73,6.73,1.87,
1618,1661557318880,-1.248,0.0736,0.3899,-34.33,7.75,6.17,
1619,1661557318880,-1.2445,-0.0235,0.2429,-33.34,3.86,3.24,
1620,1661557318880,-1.1542,-0.1529,0.1814,-37.55,1.07,6.8,
1621,1661557318881,-1.2358,-0.0338,0.2136,-37.44,-4.01,3.24,
1622,1661557318881,-1.164,-0.0553,0.113,-36.13,-7.55,2.87,
1623,1661557318882,-1.309,-0.1075,0.1482,-38.35,-7.14,3.97,
1624,1661557318882,-1.1664,-0.0523,0.1677,-39.25,-8.24,6.89,
1625,1661557318883,-1.1825,0.0414,0.4275,-40.85,-4.26,10.08,
1626,1661557318883,-1.2157,0.1054,0.4387,-42.22,-0.03,8.17,
1627,1661557318884,-1.0146,0.161,0.2336,-40.34,-0.79,4.89,
1628,1661557318884,-1.0053,0.3222,0.2624,-38.74,3.6,5.7,
1629,1661557318885,-0.9838,0.3563,0.1999,-36.03,4.37,3.62,
1630,1661557318885,-0.9198,0.413,0.1687,-34.94,11.64,4.34,
1631,1661557318886,-1.0888,0.4999,0.1677,-32.75,14.01,6.15,
1632,1661557318886,-0.9579,0.4813,-0.0554,-31.63,10.21,2.6,
1633,1661557318887,-0.8695,0.4823,-0.2034,-31.25,4.87,0.69,
1634,1661557318887,-0.8749,0.455,0.0144,-31.33,8.09,-1.32,
1635,1661557318887,-0.8661,0.3227,-0.1238,-29.24,1.5,1.07,
1636,1661557318888,-0.7231,0.4076,-0.0403,-30.73,7.25,-2.66,
1637,1661557318889,-0.7392,0.4301,0.0383,-31.45,2.17,-1.14,
1638,1661557318889,-0.7939,0.205,0.05,-28.23,8.01,-2.33,
1639,1661557318889,-0.8149,0.142,0.0808,-23.76,10.45,-1.23,
1640,1661557318890,-0.8573,0.1264,0.1692,-25.56,18.83,-3.23,
1641,1661557318890,-0.8149,0.2357,0.0085,-27.63,13.08,-5.05,
1642,1661557318892,-0.6923,0.0683,0.0139,-27.74,9.52,-3.03,
1643,1661557318892,-0.8622,-0.0133,0.0466,-23.76,6.65,-0.22,
1644,1661557318893,-0.8466,0.078,-0.0193,-24.14,10.62,1.33,
1645,1661557318893,-0.7612,0.0624,-0.1297,-26.73,9.11,2.07,
1646,1661557318893,-0.7045,0.0053,0.0315,-26.23,11.81,1.07,
1647,1661557318893,-0.766,0.0248,-0.1751,-23.24,1.41,3.51,
1648,1661557318894,-0.6928,0.0653,-0.2507,-21.74,2.26,5.18,
1649,1661557318894,-0.8632,0.1537,0.3264,-19.53,23.15,2.71,
1650,1661557318894,-0.9423,-0.046,0.136,-19.55,19.17,0.88,
1651,1661557318895,-0.6322,0.0106,-0.4632,-24.23,-6.54,5.27,
1652,1661557318895,-0.9374,0.2641,0.1711,-26.03,-9.75,0.23,
1653,1661557318896,-0.9921,-0.0392,0.1633,-15.15,-10.6,-0.77,
1654,1661557318896,-0.788,0.0248,-0.5266,-16.25,15.54,1.68,
1655,1661557318897,-0.9281,0.1239,0.1897,-20.36,24.25,-1.23,
1656,1661557318897,-0.9506,-0.1002,0.1282,-21.84,6.15,0.6,
1657,1661557318898,-0.9198,-0.1578,-0.1135,-26.34,-12.13,-0.48,
1658,1661557318898,-1.0404,-0.0182,0.0383,-21.06,-2.06,2.23,
1659,1661557318898,-1.1484,0.0443,0.1213,-21.96,5.13,2.14,
1660,1661557318899,-0.9936,-0.1803,-0.0715,-23.83,12.91,2.23,
1661,1661557318900,-1.0854,-0.1866,0.074,-26.75,7.92,1.42,
1662,1661557318901,-1.1786,-0.1012,-0.0051,-27.05,-6.04,3.79,
1663,1661557318901,-1.1557,-0.2857,0.1077,-24.54,-11.87,4.35,
1664,1661557318902,-1.1918,-0.2272,0.3557,-27.24,0.4,2.71,
1665,1661557318902,-1.2963,-0.1446,0.2414,-31.25,-8.15,0.97,
1666,1661557318902,-1.2421,-0.2296,-0.0012,-31.05,-5.11,1.96,
1667,1661557318902,-1.3246,-0.3473,0.4665,-33.75,-0.96,5.42,
1668,1661557318903,-1.4125,-0.1002,0.5183,-31.33,-11.61,6.63,
1669,1661557318903,-1.2758,-0.1236,-0.176,-41.14,-27.17,7.8,
1670,1661557318904,-1.3031,-0.0499,0.3249,-33.23,5.98,6.43,
1671,1661557318904,-1.3261,0.0497,0.4441,-32.24,21.03,7.16,
1672,1661557318905,-1.1132,0.0873,-0.1126,-37.06,10.12,9.71,
1673,1661557318905,-1.3041,0.1659,0.2014,-39.84,-10.1,8.17,
1674,1661557318906,-1.2196,0.1874,0.5266,-35.83,-5.45,3.62,
1675,1661557318906,-1.1913,0.1464,0.155,-33.33,-9.0,7.89,
1676,1661557318907,-1.1689,0.2577,-0.1428,-35.55,-2.32,5.07,
1677,1661557318907,-1.2362,0.2811,0.3713,-39.44,10.55,5.61,
1678,1661557318907,-1.2328,0.2362,0.2673,-39.64,6.15,3.24,
1679,1661557318909,-1.1161,0.2035,0.0818,-37.93,-1.3,2.6,
1680,1661557318909,-1.1073,0.2548,0.1267,-34.85,-1.72,4.25,
1681,1661557318909,-1.1474,0.3007,0.3713,-34.65,2.5,0.14,
1682,1661557318910,-1.0839,0.1737,0.1628,-35.23,8.59,-0.21,
1683,1661557318910,-0.9867,0.2084,0.0618,-37.55,6.82,1.5,
1684,1661557318910,-1.0195,0.1854,0.1575,-38.65,8.35,0.88,
1685,1661557318910,-1.0478,0.1444,0.1096,-36.54,7.49,0.05,
1686,1661557318912,-0.8827,0.2269,-0.0896,-31.74,5.46,-2.57,
1687,1661557318912,-0.9565,0.1586,0.1067,-32.75,9.19,0.51,
1688,1661557318912,-0.997,0.1449,0.2043,-32.73,4.37,-2.57,
1689,1661557318912,-0.9999,0.1205,0.0452,-34.33,-1.98,1.88,
1690,1661557318913,-0.8354,0.1283,0.1077,-32.53,2.76,1.78,
1691,1661557318913,-0.7509,0.1601,0.1916,-30.73,7.66,2.43,
1692,1661557318914,-0.6606,0.2084,0.1057,-28.85,14.27,6.06,
1693,1661557318914,-0.7338,0.2147,-0.1121,-28.23,8.85,0.14,
1694,1661557318915,-0.8569,0.1498,0.051,-29.83,10.71,3.71,
1695,1661557318915,-0.7597,0.3148,0.1975,-29.05,12.74,-0.68,
1696,1661557318916,-0.6972,0.3397,-0.0022,-24.64,17.9,3.15,
1697,1661557318916,-0.7616,0.3051,-0.2786,-25.54,16.13,1.16,
1698,1661557318917,-0.6679,0.2953,-0.2175,-22.86,12.57,1.42,
1699,1661557318917,-0.7104,0.2655,0.0798,-21.22,10.45,-0.57,
1700,1661557318917,-0.7748,0.2245,-0.2444,-23.25,-2.06,1.87,
1701,1661557318918,-0.7113,0.2738,-0.28,-21.84,-4.68,1.07,
1702,1661557318918,-0.7914,0.331,0.1057,-21.44,20.52,5.71,
1703,1661557318919,-0.7133,0.3051,0.1638,-16.86,17.64,0.05,
1704,1661557318919,-0.7016,-0.0118,-0.4895,-19.96,7.33,1.59,
1705,1661557318920,-0.8339,0.0414,-0.0139,-19.76,6.56,5.16,
1706,1661557318920,-0.8544,0.0971,0.3137,-20.05,7.08,0.97,
1707,1661557318921,-0.9433,-0.19,-0.2273,-19.96,-1.89,-0.13,
1708,1661557318921,-0.9384,-0.2589,-0.1052,-16.45,-1.8,-1.69,
1709,1661557318922,-0.8686,-0.1915,0.2429,-19.65,7.16,8.99,
1710,1661557318922,-0.9731,-0.2403,0.2087,-22.84,2.43,5.9,
1711,1661557318923,-0.9013,-0.3414,-0.1677,-24.86,-6.28,9.18,
1712,1661557318923,-1.0917,-0.3605,0.1941,-24.73,-6.45,5.62,
1713,1661557318923,-1.0292,-0.2101,0.3508,-24.05,-2.65,8.26,
1714,1661557318925,-1.0331,-0.2691,-0.1218,-24.73,-1.22,5.36,
1715,1661557318925,-0.9731,-0.2418,-0.1199,-28.64,-1.05,3.15,
1716,1661557318926,-1.2148,-0.045,0.3489,-30.73,5.13,2.8,
1717,1661557318926,-1.1117,-0.0528,0.2751,-25.45,-0.79,0.42,
1718,1661557318926,-1.0702,-0.1871,-0.4363,-25.33,-9.41,-0.5,
1719,1661557318926,-1.0961,0.1327,0.0871,-26.73,0.57,2.32,
1720,1661557318928,-1.2392,0.0209,0.2864,-33.45,-6.12,0.33,
1721,1661557318928,-1.1601,-0.1285,-0.1624,-33.75,-14.66,0.33,
1722,1661557318929,-1.269,0.0922,0.3015,-30.85,-9.5,3.15,
1723,1661557318929,-1.3095,0.142,0.4695,-31.63,-3.66,0.05,
1724,1661557318929,-1.2704,0.0346,0.3093,-31.74,-1.39,1.24,
1725,1661557318929,-1.2265,-0.027,0.2185,-35.55,3.43,-1.78,
1726,1661557318930,-1.2616,0.0062,0.3938,-35.43,0.47,0.52,
1727,1661557318930,-1.2636,-0.0064,0.3083,-35.32,1.16,-0.3,
1728,1661557318930,-1.1742,-0.1647,0.1955,-31.33,-0.53,1.42,
1729,1661557318931,-1.2939,-0.0382,0.2473,-34.73,2.09,-1.96,
1730,1661557318931,-1.1479,0.0346,0.2312,-40.04,-0.7,-1.05,
1731,1661557318932,-1.1928,-0.1163,0.1267,-36.54,0.73,0.23,
1732,1661557318932,-1.2636,-0.0807,0.0974,-37.12,-4.42,1.97,
1733,1661557318933,-1.1864,0.0067,0.1916,-41.35,-7.22,1.68,
1734,1661557318933,-1.1874,0.0805,0.3386,-40.63,-3.16,-0.67,
1735,1661557318935,-0.9589,0.1815,0.2131,-40.65,-1.05,2.32,
1736,1661557318935,-1.0112,0.2987,0.1848,-37.23,7.59,-0.03,
1737,1661557318935,-1.0092,0.3593,0.2224,-37.12,9.61,2.43,
1738,1661557318935,-1.0077,0.4223,0.1306,-34.73,1.33,1.96,
1739,1661557318936,-1.0434,0.4936,0.2209,-35.45,7.08,0.33,
1740,1661557318936,-0.957,0.4525,-0.012,-35.64,3.69,1.59,
1741,1661557318936,-0.8686,0.433,-0.134,-29.65,8.52,-1.78,
1742,1661557318938,-0.9057,0.5185,0.0417,-28.66,13.51,3.51,
1743,1661557318938,-0.9228,0.4345,0.0618,-31.23,5.39,-1.58,
1744,1661557318938,-0.7831,0.3163,-0.0569,-32.93,4.12,1.15,
1745,1661557318938,-0.7792,0.4423,0.1213,-33.13,8.01,0.71,
1746,1661557318939,-0.809,0.2113,0.0813,-26.64,8.76,1.26,
1747,1661557318939,-0.83,0.1688,0.0061,-26.23,6.99,3.07,
1748,1661557318940,-0.7704,0.119,0.1677,-28.15,12.07,1.06,
1749,1661557318940,-0.831,0.2186,0.1755,-28.35,13.51,-0.41,
1750,1661557318941,-0.8153,0.1752,-0.1419,-26.53,8.35,-1.58,
1751,1661557318941,-0.6684,-0.006,0.0159,-23.25,12.91,4.43,
1752,1661557318942,-0.8593,0.0956,0.0408,-22.03,8.42,4.25,
1753,1661557318943,-0.6933,0.1269,-0.0457,-21.53,7.08,6.61,
1754,1661557318943,-0.8412,-0.0509,-0.1004,-21.65,1.16,4.98,
1755,1661557318944,-0.7841,-0.0387,-0.0257,-21.33,6.49,4.63,
1756,1661557318944,-0.5522,0.0258,-0.221,-21.65,-3.25,5.88,
1757,1661557318944,-0.6025,0.1361,-0.1375,-22.66,-11.7,2.14,
1758,1661557318944,-0.9701,-0.0309,0.1233,-24.86,0.31,6.52,
1759,1661557318945,-0.6811,0.0316,-0.3367,-16.16,6.82,4.61,
1760,1661557318945,-0.7934,0.1483,-0.4192,-13.26,17.06,1.24,
1761,1661557318946,-0.936,0.1947,0.466,-19.96,28.47,5.07,
1762,1661557318946,-0.8002,-0.1422,-0.1609,-24.75,-4.85,6.7,
1763,1661557318946,-0.8193,0.0394,-0.3049,-26.34,-15.59,6.9,
1764,1661557318948,-1.1371,0.1068,0.2141,-19.74,-5.35,6.34,
1765,1661557318948,-0.974,-0.1319,-0.0808,-15.35,10.88,5.35,
1766,1661557318948,-1.0517,-0.0201,0.0661,-22.86,12.24,9.71,
1767,1661557318948,-1.0751,-0.0045,0.0774,-25.83,1.91,6.44,
1768,1661557318949,-1.0278,-0.088,-0.0471,-23.96,-9.34,7.62,
1769,1661557318949,-0.9945,-0.17,0.0427,-23.85,-1.8,4.98,
1770,1661557318950,-1.0917,-0.1109,0.0735,-24.55,5.46,3.61,
1771,1661557318950,-1.2675,-0.1808,-0.0686,-26.55,0.9,2.87,
1772,1661557318951,-1.1928,-0.2892,0.1662,-28.85,-0.87,2.32,
1773,1661557318951,-1.2602,-0.1564,0.2292,-30.84,-5.61,6.26,
1774,1661557318952,-1.267,-0.2604,-0.0086,-28.44,-13.56,6.15,
1775,1661557318952,-0.9819,-0.3204,0.0056,-30.64,-5.11,5.88,
1776,1661557318953,-1.2177,-0.256,0.4304,-34.33,15.87,1.96,
1777,1661557318953,-1.164,-0.0821,0.2141,-32.23,8.09,6.63,
1778,1661557318953,-1.1957,-0.1476,0.091,-33.05,3.77,5.35,
1779,1661557318954,-1.2431,-0.068,0.6306,-44.14,-13.82,3.33,
1780,1661557318954,-1.4237,-0.0445,-0.0227,-40.53,-31.66,3.99,
1781,1661557318955,-1.2289,0.2367,-0.0847,-30.64,1.57,0.78,
1782,1661557318956,-1.3139,0.1869,0.5759,-34.45,15.28,-0.13,
1783,1661557318957,-1.2831,0.1386,0.5202,-37.35,3.77,-0.59,
1784,1661557318957,-1.2177,0.1742,-0.0305,-39.23,-13.4,3.8,
1785,1661557318958,-1.1689,0.2128,0.2102,-37.93,-9.0,-0.12,
1786,1661557318958,-1.2182,0.2587,0.4919,-35.25,2.67,-0.68,
1787,1661557318959,-1.0942,0.2768,0.1506,-37.22,13.34,-2.94,
1788,1661557318959,-1.0995,0.3246,0.0886,-37.64,10.12,-2.95,
1789,1661557318959,-1.1479,0.3441,0.3498,-37.44,6.56,-3.41,
1790,1661557318959,-1.1049,0.161,0.2849,-32.52,-4.09,0.62,
1791,1661557318961,-1.0522,0.2147,0.0432,-31.83,-4.26,1.44,
1792,1661557318961,-0.977,0.2523,0.0661,-31.83,0.14,2.97,
1793,1661557318961,-1.0644,0.1356,0.1433,-35.23,10.79,3.88,
1794,1661557318961,-0.8832,0.2411,-0.0252,-36.13,5.72,0.14,
1795,1661557318961,-0.9052,0.2186,-0.0413,-35.64,2.93,1.78,
1796,1661557318962,-1.0634,0.1249,0.2615,-30.72,5.8,2.61,
1797,1661557318962,-0.8153,0.0971,0.2488,-28.23,7.59,2.34,
1798,1661557318963,-0.8691,0.1229,0.0647,-30.94,5.13,5.61,
1799,1661557318963,-0.7279,0.1815,0.1252,-32.23,6.56,6.61,
1800,1661557318963,-0.7724,0.1874,0.1492,-34.13,13.51,5.8,
1801,1661557318965,-0.8002,0.2426,-0.0154,-29.75,10.38,6.43,
1802,1661557318965,-0.8388,0.2196,-0.2127,-22.95,9.45,6.34,
1803,1661557318966,-0.7944,0.2094,0.1145,-25.76,14.18,4.89,
1804,1661557318966,-0.7118,0.3319,0.0989,-28.17,10.45,1.59,
1805,1661557318967,-0.7353,0.3646,-0.2971,-26.53,5.8,4.8,
1806,1661557318967,-0.7436,0.3227,-0.3313,-23.64,4.53,4.45,
1807,1661557318968,-0.6352,0.3769,-0.011,-23.64,6.82,1.07,
1808,1661557318968,-0.7465,0.2929,0.155,-23.04,12.82,0.42,
1809,1661557318968,-0.747,0.224,-0.3142,-20.93,9.78,2.23,
1810,1661557318968,-0.7626,0.2768,-0.0769,-18.36,10.04,-0.04,
1811,1661557318969,-0.6772,0.2973,0.2497,-21.33,19.43,1.7,
1812,1661557318969,-0.7631,0.1791,-0.1267,-20.95,8.85,0.42,
1813,1661557318970,-0.6371,-0.0392,-0.5632,-18.86,12.24,0.14,
1814,1661557318970,-0.8227,0.0336,0.0295,-17.53,5.39,-1.87,
1815,1661557318970,-0.8237,-0.0382,0.0803,-18.04,3.69,-0.57,
1816,1661557318971,-0.8671,-0.2745,-0.3684,-19.96,-6.54,2.51,
1817,1661557318971,-0.8852,-0.2916,0.0564,-22.75,-0.53,-0.59,
1818,1661557318972,-1.0541,-0.2394,0.3479,-21.33,-2.65,0.8,
1819,1661557318972,-1.0092,-0.2901,0.1926,-22.93,-4.94,-2.5,
1820,1661557318973,-0.9633,-0.42,-0.0051,-22.45,-1.98,11.54,
1821,1661557318973,-1.0273,-0.2457,0.4275,-26.95,7.16,9.53,
1822,1661557318975,-1.1225,-0.1793,0.2927,-26.66,-0.79,8.44,
1823,1661557318975,-1.0463,-0.2823,-0.1297,-27.94,0.98,6.7,
1824,1661557318975,-1.0224,-0.0626,0.0627,-28.95,3.43,3.88,
1825,1661557318975,-1.0961,-0.0587,0.2536,-25.44,11.81,6.7,
1826,1661557318976,-1.0829,-0.1759,-0.4456,-24.15,-8.07,7.99,
1827,1661557318976,-1.102,0.0858,-0.096,-28.75,-10.86,6.8,
1828,1661557318977,-1.1923,0.1962,0.2322,-31.65,-9.0,0.78,
1829,1661557318978,-1.2392,0.0048,0.0002,-31.83,-11.03,3.53,
1830,1661557318978,-1.2026,-0.0748,-0.0896,-33.25,-7.14,0.78,
1831,1661557318978,-1.2846,0.1156,0.5378,-36.03,-2.32,1.07,
1832,1661557318978,-1.2704,0.0561,0.4109,-34.15,-12.13,2.87,
1833,1661557318979,-1.2377,-0.0646,0.2341,-30.64,-1.72,2.8,
1834,1661557318980,-1.268,-0.0035,0.4172,-34.23,10.12,-0.21,
1835,1661557318980,-1.2655,0.038,0.4211,-36.53,10.21,0.8,
1836,1661557318980,-1.2582,-0.0924,0.1926,-32.15,2.09,1.68,
1837,1661557318981,-1.2001,-0.1324,0.1609,-34.76,0.29,1.78,
1838,1661557318981,-1.2382,0.0136,0.2444,-36.96,-2.32,-0.13,
1839,1661557318982,-1.1786,-0.1168,0.0993,-39.84,-5.87,2.69,
1840,1661557318982,-1.2636,-0.1398,0.0476,-39.43,-8.48,5.36,
1841,1661557318983,-1.1435,-0.0177,0.2019,-37.63,-5.35,7.89,
1842,1661557318984,-1.183,0.058,0.3435,-40.02,-3.16,11.65,
1843,1661557318984,-1.1996,0.1337,0.4001,-43.24,-2.91,10.08,
1844,1661557318985,-1.1386,0.2274,0.2366,-43.04,-2.73,10.08,
1845,1661557318985,-1.0644,0.3954,0.2737,-39.93,5.13,3.35,
1846,1661557318986,-1.0082,0.4066,0.0808,-32.46,4.53,7.62,
1847,1661557318986,-0.9833,0.517,0.1848,-34.84,17.4,2.51,
1848,1661557318987,-1.0727,0.5585,0.2024,-33.25,18.33,-0.04,
1849,1661557318987,-0.9062,0.473,-0.1853,-32.13,10.38,3.8,
1850,1661557318987,-0.8959,0.5624,-0.1306,-32.33,8.18,-2.59,
1851,1661557318987,-0.8969,0.4838,0.0359,-27.25,6.82,-1.14,
1852,1661557318988,-0.8007,0.2855,-0.1756,-29.83,3.19,-1.86,
1853,1661557318988,-0.7568,0.4052,0.0437,-32.33,3.19,-1.87,
1854,1661557318989,-0.8339,0.2265,0.0647,-32.15,2.76,-0.32,
1855,1661557318989,-0.8461,0.2103,0.0271,-29.54,10.12,0.34,
1856,1661557318990,-0.7948,0.1166,0.1389,-27.56,11.31,-1.41,
1857,1661557318990,-0.8495,0.1752,0.2507,-26.03,15.44,4.17,
1858,1661557318990,-0.829,0.2099,-0.0838,-27.05,7.83,1.33,
1859,1661557318992,-0.6723,0.037,0.0383,-24.75,11.05,1.87,
1860,1661557318992,-0.8149,-0.0255,0.1272,-22.23,10.12,5.61,
1861,1661557318993,-0.8149,0.0917,-0.0081,-25.96,12.32,6.7,
1862,1661557318993,-0.8954,0.0136,-0.1277,-22.93,4.96,7.73,
1863,1661557318993,-0.7475,0.018,0.0368,-23.06,12.15,9.8,
1864,1661557318993,-0.6239,0.0619,-0.2654,-20.93,-1.3,14.38,
1865,1661557318995,-0.7016,0.1166,-0.2786,-24.84,-6.28,4.54,
1866,1661557318995,-0.9638,0.0477,0.2292,-21.76,-2.49,8.99,
1867,1661557318995,-0.955,-0.1124,0.0198,-22.14,-17.03,5.88,
1868,1661557318996,-0.7455,0.1884,-0.4407,-18.84,3.36,4.99,
1869,1661557318996,-0.9403,0.2431,0.364,-16.24,34.56,5.07,
1870,1661557318996,-0.8451,-0.0978,-0.01,-15.84,21.2,9.91,
1871,1661557318997,-0.81,0.0927,-0.3665,-26.93,-4.59,3.88,
1872,1661557318997,-1.0937,0.0556,0.177,-21.44,-4.68,0.16,
1873,1661557318997,-0.9394,-0.1485,-0.0271,-17.35,-4.26,2.87,
1874,1661557318998,-1.0522,-0.0665,0.0017,-22.54,11.81,4.17,
1875,1661557318998,-1.0492,-0.0738,0.0095,-25.33,10.04,1.42,
1876,1661557318999,-1.0717,-0.046,-0.1174,-26.34,-2.65,1.87,
1877,1661557318999,-0.9789,-0.1979,0.0295,-23.44,0.05,5.79,
1878,1661557319001,-1.1078,-0.1744,0.0173,-23.32,-5.52,1.79,
1879,1661557319001,-1.2328,-0.2018,-0.0925,-25.77,-1.91,-0.22,
1880,1661557319002,-1.2026,-0.3253,0.2346,-25.34,-4.26,2.32,
1881,1661557319002,-1.2153,-0.1827,0.3269,-29.54,-6.97,1.35,
1882,1661557319002,-1.2944,-0.294,0.0588,-34.01,-15.26,1.52,
1883,1661557319002,-1.0971,-0.3082,0.0979,-29.54,-11.2,3.33,
1884,1661557319002,-1.2875,-0.2564,0.4919,-32.73,9.52,4.99,
1885,1661557319003,-1.2387,-0.1261,0.2434,-36.64,14.68,1.97,
1886,1661557319003,-1.1811,-0.0826,-0.0955,-31.04,12.24,2.89,
1887,1661557319004,-1.2948,-0.0206,0.5173,-38.44,2.34,3.8,
1888,1661557319004,-1.3666,-0.025,-0.0164,-41.64,-28.79,3.42,
1889,1661557319005,-1.122,0.1908,-0.2415,-37.05,-18.13,1.24,
1890,1661557319005,-1.3315,0.1869,0.4895,-30.43,6.73,-0.21,
1891,1661557319006,-1.2944,0.1454,0.5466,-31.13,12.48,1.5,
1892,1661557319006,-1.1825,0.1405,0.0266,-38.33,-7.64,2.78,
1893,1661557319008,-1.1772,0.2538,0.1907,-43.35,-3.66,0.23,
1894,1661557319008,-1.2216,0.286,0.55,-39.02,-6.21,0.8,
1895,1661557319008,-1.141,0.1996,0.2429,-36.24,8.18,2.87,
1896,1661557319008,-1.1161,0.3065,0.0788,-35.77,11.37,-1.69,
1897,1661557319009,-1.0912,0.3119,0.1741,-36.53,18.16,-0.3,
1898,1661557319010,-1.1259,0.1747,0.3118,-37.34,7.66,-0.22,
1899,1661557319010,-1.1088,0.1972,0.0388,-36.03,-1.72,-1.95,
1900,1661557319011,-0.9926,0.2719,-0.0076,-34.23,-4.94,-0.86,
1901,1661557319011,-1.0219,0.1708,0.1194,-35.45,2.93,-3.14,
1902,1661557319011,-0.8842,0.2318,-0.0427,-33.45,-0.62,-0.41,
1903,1661557319011,-0.9071,0.1977,0.0095,-35.84,0.9,0.42,
1904,1661557319012,-1.0258,0.1586,0.2449,-31.54,2.67,3.24,
1905,1661557319012,-0.8959,0.1102,0.3298,-31.05,3.77,-2.5,
1906,1661557319013,-0.9613,0.1176,0.1394,-30.03,3.86,2.8,
1907,1661557319013,-0.8134,0.2235,0.2297,-30.14,8.09,-0.04,
1908,1661557319013,-0.7021,0.1977,0.2932,-30.24,11.55,2.14,
1909,1661557319016,-0.8276,0.2362,0.095,-26.25,11.14,5.61,
1910,1661557319016,-0.8105,0.2226,-0.1853,-24.35,11.48,4.16,
1911,1661557319016,-0.7934,0.1942,0.0505,-24.73,15.54,4.81,
1912,1661557319016,-0.6938,0.3187,0.1077,-25.04,8.18,1.87,
1913,1661557319016,-0.7079,0.3417,-0.322,-27.65,2.26,-1.78,
1914,1661557319017,-0.6562,0.2958,-0.304,-21.76,3.27,-0.22,
1915,1661557319018,-0.6684,0.3422,-0.0955,-23.54,9.19,-0.04,
1916,1661557319018,-0.7743,0.2499,0.1238,-23.04,15.2,-1.22,
1917,1661557319019,-0.7275,0.224,-0.2996,-20.93,3.6,2.89,
1918,1661557319019,-0.7465,0.329,-0.0803,-20.25,10.45,-2.15,
1919,1661557319019,-0.7411,0.3095,0.2571,-19.74,12.41,0.89,
1920,1661557319019,-0.8197,0.079,-0.427,-18.95,2.5,-1.14,
1921,1661557319020,-0.7821,0.0326,-0.2371,-13.35,10.88,-1.6,
1922,1661557319020,-0.8764,0.0595,0.1999,-16.54,8.09,-0.04,
1923,1661557319021,-0.8197,0.0072,0.0901,-15.55,6.99,2.51,
1924,1661557319021,-0.9111,-0.211,-0.2537,-18.54,-0.79,0.89,
1925,1661557319022,-0.9057,-0.2711,0.0212,-19.26,2.34,1.24,
1926,1661557319022,-1.0195,-0.2696,0.2322,-21.65,-2.91,2.69,
1927,1661557319022,-0.9941,-0.3116,-0.0305,-22.34,-3.49,3.16,
1928,1661557319023,-1.0771,-0.401,0.0735,-22.74,0.81,8.26,
1929,1661557319023,-1.017,-0.3146,0.2229,-23.76,5.89,8.63,
1930,1661557319025,-1.0507,-0.234,0.1404,-24.95,-0.62,5.35,
1931,1661557319025,-1.057,-0.2467,-0.1121,-26.66,0.14,9.53,
1932,1661557319026,-0.9965,-0.1559,-0.0154,-28.55,-0.46,7.07,
1933,1661557319026,-1.1195,-0.0665,0.2209,-27.13,8.09,2.43,
1934,1661557319026,-1.1205,-0.1422,-0.2136,-24.35,-5.35,7.44,
1935,1661557319026,-1.1098,0.0106,-0.159,-26.25,-9.25,3.7,
1936,1661557319028,-1.2074,0.1005,0.2395,-29.63,-10.18,0.78,
1937,1661557319028,-1.2231,0.0077,0.1052,-30.75,-9.75,-1.87,
1938,1661557319028,-1.1943,-0.0924,-0.0574,-33.23,-6.38,-0.86,
1939,1661557319028,-1.2973,0.0849,0.4416,-33.55,0.4,4.16,
1940,1661557319028,-1.2919,0.0722,0.3992,-33.25,-6.04,0.88,
1941,1661557319029,-1.2236,-0.0191,0.1462,-33.33,-0.87,2.16,
1942,1661557319029,-1.2299,-0.0182,0.3616,-34.55,1.5,3.97,
1943,1661557319030,-1.2592,0.0043,0.404,-35.05,3.69,-1.23,
1944,1661557319031,-1.2553,-0.048,0.2253,-34.84,-2.99,-3.49,
1945,1661557319031,-1.1689,-0.152,0.1775,-33.95,-1.05,-1.14,
1946,1661557319031,-1.2494,-0.0397,0.2927,-39.03,-1.98,-2.68,
1947,1661557319032,-1.1747,-0.1022,0.1477,-40.02,-3.08,6.43,
1948,1661557319032,-1.2489,-0.1666,0.1125,-38.24,-8.91,4.71,
1949,1661557319034,-1.1596,-0.0382,0.2576,-37.25,-4.51,7.16,
1950,1661557319034,-1.1786,0.0844,0.4011,-37.35,3.43,8.17,
1951,1661557319034,-1.1791,0.1561,0.323,-42.65,4.46,7.89,
1952,1661557319035,-1.0468,0.2128,0.1545,-43.82,2.67,6.52,
1953,1661557319035,-0.9897,0.3231,0.154,-38.85,4.63,2.05,
1954,1661557319036,-0.9819,0.3778,0.0193,-35.95,-1.3,4.34,
1955,1661557319036,-0.9765,0.4838,0.2273,-31.14,7.25,5.97,
1956,1661557319036,-1.1034,0.557,0.1926,-30.65,8.09,2.6,
1957,1661557319036,-0.9301,0.4633,-0.1546,-30.04,7.25,-1.32,
1958,1661557319037,-0.913,0.4862,-0.0979,-32.65,8.01,-4.88,
1959,1661557319037,-0.8925,0.4716,0.0681,-33.25,9.69,-2.33,
1960,1661557319038,-0.8158,0.3725,-0.1126,-28.14,4.2,0.62,
1961,1661557319038,-0.7778,0.4213,0.1101,-31.45,12.24,-3.05,
1962,1661557319039,-0.8168,0.3983,0.1535,-30.03,1.91,1.42,
1963,1661557319039,-0.8481,0.1874,0.0237,-28.24,6.49,-3.41,
1964,1661557319040,-0.7924,0.1478,0.1135,-27.33,11.05,1.96,
1965,1661557319040,-0.8627,0.1742,0.1892,-28.24,15.54,0.69,
1966,1661557319041,-0.8168,0.202,-0.1267,-24.66,11.98,4.71,
1967,1661557319042,-0.8095,0.1186,-0.1482,-26.15,12.24,1.59,
1968,1661557319042,-0.766,0.017,0.1023,-24.75,11.31,5.61,
1969,1661557319043,-0.8437,0.1459,0.0251,-23.33,6.99,4.63,
1970,1661557319043,-0.8163,0.0561,-0.158,-21.13,5.3,4.72,
1971,1661557319043,-0.7607,0.0111,0.0095,-22.23,11.55,5.16,
1972,1661557319043,-0.5732,0.0746,-0.2302,-23.06,12.41,7.34,
1973,1661557319044,-0.5854,0.0971,-0.3176,-24.05,5.39,9.08,
1974,1661557319044,-0.6947,0.1791,0.1496,-18.95,1.24,9.34,
1975,1661557319045,-0.9916,-0.1334,-0.0457,-24.25,-22.7,6.25,
1976,1661557319045,-0.7992,0.1996,-0.4007,-23.64,-14.83,1.33,
1977,1661557319046,-0.9003,0.2558,0.2356,-14.27,26.11,2.05,
1978,1661557319046,-0.8002,-0.1266,-0.0759,-16.85,20.69,1.88,
1979,1661557319046,-0.8232,0.098,-0.2649,-23.06,0.64,3.33,
1980,1661557319047,-0.8451,0.0424,0.0681,-22.54,1.74,5.61,
1981,1661557319047,-0.9985,-0.0665,0.0749,-22.95,-13.4,3.51,
1982,1661557319048,-0.9975,-0.0333,-0.0305,-24.03,-1.72,1.35,
1983,1661557319048,-1.0946,-0.0392,0.1433,-22.45,7.75,-1.23,
1984,1661557319049,-1.079,-0.0211,-0.0545,-23.33,4.03,-0.41,
1985,1661557319050,-0.9799,-0.1817,0.0593,-25.13,2.6,3.35,
1986,1661557319051,-1.0917,-0.1783,0.0774,-26.23,-5.11,0.34,
