srNo,timestamp,ax,ay,az,gx,gy,gz,temp
86080,1661606220282,-1.1133,-0.7024,0.2303,7.52,-12.63,-0.25,
86081,1661606220282,-1.2886,-0.8748,0.3401,4.02,-13.82,3.95,
86082,1661606220282,-1.0654,-0.552,-0.115,-1.47,-28.37,0.67,
86083,1661606220282,-1.3325,-0.4734,0.8484,0.62,-12.54,3.95,
86084,1661606220282,-1.2695,-0.5457,0.658,1.63,-9.67,4.59,
86085,1661606220282,-1.1782,-0.4549,0.219,2.63,-8.67,8.42,
86086,1661606220282,-1.2647,-0.156,0.8182,-2.37,7.07,5.22,
86087,1661606220282,-1.1934,-0.2508,0.6692,-0.48,2.17,6.59,
86088,1661606220282,-1.1836,-0.198,0.2039,0.02,3.77,3.86,
86089,1661606220282,-1.1856,0.0759,0.3479,1.12,2.17,6.5,
86090,1661606220282,-1.1943,0.3044,0.2415,2.83,-0.7,5.95,
86091,1661606220282,-1.144,0.1823,0.2625,7.43,3.86,9.23,
86092,1661606220282,-1.1792,0.3454,0.221,5.32,6.99,5.14,
86093,1661606220282,-1.0283,0.4831,-0.0149,2.83,0.9,7.05,
86094,1661606220282,-1.1299,0.5759,0.3411,2.83,13.24,5.14,
86095,1661606220282,-1.1504,0.6433,0.5315,7.03,14.68,3.86,
86096,1661606220282,-1.0689,0.6364,0.1092,10.02,7.07,4.23,
86097,1661606220282,-0.9854,0.8376,0.3064,13.12,27.04,3.13,
86098,1661606220282,-1.1821,0.7805,0.5559,21.31,21.19,1.57,
86099,1661606220298,-1.019,0.5691,-0.0442,22.71,24.92,4.41,
86100,1661606220298,-0.9922,0.8322,0.1726,20.72,23.65,-2.98,
86101,1661606220298,-0.9756,0.8601,0.2332,20.91,24.25,-2.26,
86102,1661606220298,-1.0103,0.6081,-0.3366,25.13,3.27,1.66,
86103,1661606220298,-0.9224,0.5705,-0.1804,27.92,8.26,-4.9,
86104,1661606220298,-0.9458,0.6926,0.178,31.72,7.42,0.67,
86105,1661606220298,-1.1021,0.6482,-0.1608,34.11,-0.03,2.03,
86106,1661606220298,-0.8403,0.5403,-0.2692,33.01,5.72,2.49,
86107,1661606220298,-1.0317,0.6955,0.3118,30.91,9.52,-4.26,
86108,1661606220298,-0.7065,0.8025,-0.1506,32.22,4.46,-4.72,
86109,1661606220298,-0.8789,0.6096,-0.1472,41.12,2.26,-3.98,
86110,1661606220298,-0.6631,0.6189,0.1604,41.71,13.41,-2.26,
86111,1661606220298,-0.8003,0.674,-0.2546,42.51,-8.91,-5.17,
86112,1661606220298,-0.8315,0.6921,-0.4724,43.01,1.33,-8.91,
86113,1661606220298,-0.8003,0.5363,-0.2653,47.89,-4.94,-10.64,
86114,1661606220298,-0.751,0.5925,-0.3283,48.12,11.98,-14.02,
86115,1661606220298,-0.77,0.6721,-0.5412,41.21,-6.88,-15.66,
86116,1661606220298,-0.6821,0.1936,-0.4172,42.9,-8.32,-11.83,
86117,1661606220298,-0.7959,0.3415,-0.154,48.01,-5.78,-10.45,
86118,1661606220298,-0.79,0.3327,-0.3581,50.52,1.74,-12.47,
86119,1661606220298,-0.7671,0.1565,-0.3317,44.81,-2.82,-13.66,
86120,1661606220298,-0.8154,-0.0716,-0.0451,41.71,-3.42,-18.48,
86121,1661606220298,-0.8037,-0.1712,-0.3986,45.71,-13.06,-11.19,
86122,1661606220298,-0.8052,-0.3162,-0.5256,44.11,0.31,-11.37,
86123,1661606220298,-0.8701,-0.618,-0.0271,35.01,-8.07,-10.19,
86124,1661606220298,-1.0376,-0.6546,-0.4978,32.22,-30.82,-7.63,
86125,1661606220298,-0.9326,-0.5398,-0.1989,33.21,-28.63,-2.79,
86126,1661606220298,-1.0801,-0.9163,0.2605,26.32,-18.22,-9.83,
86127,1661606220298,-0.9878,-0.8474,-0.3435,20.72,-31.75,-8.0,
86128,1661606220298,-1.021,-0.6765,0.1048,22.32,-27.44,-3.8,
86129,1661606220298,-0.9209,-0.7425,0.3421,19.92,-22.45,-3.71,
86130,1661606220298,-0.9756,-0.6848,-0.1887,12.72,-22.95,-7.54,
86131,1661606220298,-1.1167,-0.5511,0.5066,11.73,-10.27,-7.72,
86132,1661606220298,-1.0913,-0.5945,-0.052,11.53,-25.5,-1.8,
86133,1661606220314,-1.0054,-0.5638,0.0774,8.63,-21.85,-0.7,
86134,1661606220314,-1.1821,-0.4788,0.2859,9.12,-17.2,-0.06,
86135,1661606220314,-1.1704,-0.3611,0.0784,9.73,-14.5,-0.61,
86136,1661606220314,-1.1924,-0.3748,0.2371,6.42,-11.44,-0.43,
86137,1661606220314,-1.2681,-0.2254,0.4822,-0.97,-11.87,-0.61,
86138,1661606220314,-1.2593,-0.1985,0.4275,-0.51,-11.46,-0.61,
86139,1661606220314,-1.2031,-0.2244,0.6077,3.93,6.56,5.58,
86140,1661606220314,-1.2124,-0.1365,0.3387,4.65,1.14,0.67,
86141,1661606220314,-1.2163,-0.094,0.2869,3.43,11.14,1.94,
86142,1661606220314,-1.27,-0.1136,0.533,2.13,13.17,1.66,
86143,1661606220314,-1.2749,-0.1829,0.2586,0.83,12.07,1.3,
86144,1661606220314,-1.2002,-0.0613,0.2439,0.62,3.17,-1.53,
86145,1661606220314,-1.1836,-0.0325,0.3196,2.54,-3.75,2.39,
86146,1661606220314,-1.1973,0.0197,0.2249,2.22,-11.87,7.87,
86147,1661606220314,-1.1592,0.0666,0.2005,4.13,-3.42,9.41,
86148,1661606220314,-1.3491,0.1862,0.7039,4.02,5.8,12.53,
86149,1661606220314,-1.3135,0.2956,0.4891,5.93,6.73,13.33,
86150,1661606220314,-0.9238,0.3586,0.1062,8.63,12.41,7.23,
86151,1661606220314,-1.0347,0.6223,0.7527,8.42,22.8,8.33,
86152,1661606220314,-1.0977,0.6911,0.1809,10.63,11.89,6.13,
86153,1661606220314,-1.0601,0.6931,-0.1154,16.02,15.03,3.77,
86154,1661606220314,-1.1323,0.7937,0.3543,20.91,17.81,3.95,
86155,1661606220314,-1.0259,0.8962,-0.0647,24.1,11.55,0.94,
86156,1661606220314,-0.8574,0.9284,-0.2082,25.03,14.18,1.57,
86157,1661606220314,-0.9502,0.9187,0.0442,25.03,15.27,2.3,
86158,1661606220314,-0.9795,0.9441,-0.0871,26.51,9.28,0.21,
86159,1661606220314,-0.8877,0.9465,-0.0832,30.01,17.47,3.04,
86160,1661606220314,-0.9087,1.0661,0.0345,32.43,16.21,-4.99,
86161,1661606220314,-0.8853,0.9665,-0.1828,37.21,12.48,-6.53,
86162,1661606220314,-0.8237,0.9895,0.0276,39.71,14.68,-9.92,
86163,1661606220314,-0.9478,0.8098,-0.0305,40.41,12.82,-7.45,
86164,1661606220314,-0.8662,0.7204,-0.28,46.41,10.12,-11.28,
86165,1661606220314,-0.8174,0.6091,-0.2634,46.21,10.96,-11.83,
86166,1661606220314,-0.7969,0.4987,-0.1931,47.2,1.07,-12.01,
86167,1661606220314,-0.8369,0.3674,-0.591,46.7,-9.51,-10.01,
86168,1661606220329,-0.7236,0.2238,-0.3542,47.6,-3.66,-10.29,
86169,1661606220329,-0.8057,0.2771,-0.2512,44.02,-4.09,-12.19,
86170,1661606220329,-0.6641,0.091,-0.4851,41.12,-9.93,-10.73,
86171,1661606220329,-0.8921,-0.055,-0.1984,41.21,-14.16,-12.28,
86172,1661606220329,-0.791,0.0412,-0.196,44.9,-13.47,-9.83,
86173,1661606220329,-0.8057,-0.0716,-0.3908,44.92,-8.48,-6.36,
86174,1661606220329,-0.6465,-0.0965,-0.1169,40.31,-3.08,-10.82,
86175,1661606220329,-0.8677,-0.2591,-0.3449,39.01,-16.95,-3.25,
86176,1661606220329,-0.7886,-0.3509,-0.4055,41.21,-19.06,-13.02,
86177,1661606220329,-0.8779,-0.2581,-0.0007,36.43,-13.56,-7.54,
86178,1661606220329,-0.9849,-0.3816,-0.1926,34.51,-13.9,-11.46,
86179,1661606220329,-0.9561,-0.4715,-0.2756,28.71,-28.27,-12.56,
86180,1661606220329,-0.9966,-0.4065,0.3011,28.22,-12.73,-7.45,
86181,1661606220329,-1.0059,-0.4456,0.1121,26.82,-16.78,-10.55,
86182,1661606220329,-0.9429,-0.4925,-0.112,20.52,-18.81,-8.82,
86183,1661606220329,-0.9854,-0.6199,0.2683,22.21,-13.56,-5.54,
86184,1661606220329,-0.9883,-0.5384,0.0013,20.21,-15.5,-0.43,
86185,1661606220329,-1.0586,-0.5667,-0.1579,14.92,-15.0,-8.45,
86186,1661606220329,-1.0879,-0.7537,0.3284,11.24,-6.45,-3.71,
86187,1661606220329,-1.1133,-0.7405,-0.2097,13.93,-17.88,-3.53,
86188,1661606220329,-1.1753,-0.6931,-0.0075,9.62,-21.01,-1.8,
86189,1661606220329,-1.2109,-0.7708,0.5467,3.82,-20.25,-2.17,
86190,1661606220329,-1.1856,-0.6595,0.0423,-1.58,-21.51,1.3,
86191,1661606220329,-1.1572,-0.4627,0.3245,-0.88,-16.43,0.3,
86192,1661606220329,-1.3032,-0.4456,0.9231,-1.17,-2.91,0.49,
86193,1661606220329,-1.2109,-0.4524,0.5447,0.73,-15.76,2.76,
86194,1661606220329,-1.2603,-0.2327,0.2229,-1.59,-2.75,0.94,
86195,1661606220329,-1.2559,-0.0774,0.8743,0.13,6.15,-0.25,
86196,1661606220329,-1.2861,-0.222,0.1277,2.73,1.91,5.86,
86197,1661606220329,-1.1787,-0.1468,0.0877,-0.17,5.97,4.32,
86198,1661606220329,-1.2212,0.2175,0.4217,-2.87,5.22,3.77,
86199,1661606220329,-1.104,0.1804,0.1971,0.44,-0.29,10.05,
86200,1661606220345,-1.2564,0.2248,0.2791,3.73,-0.63,8.6,
86201,1661606220345,-1.188,0.3532,0.2815,7.23,0.14,9.14,
86202,1661606220345,-1.061,0.4455,0.262,4.94,5.04,4.96,
86203,1661606220345,-1.1753,0.5774,0.6243,7.32,18.23,1.22,
86204,1661606220345,-1.061,0.6687,0.1746,11.22,13.08,6.68,
86205,1661606220345,-1.0747,0.7649,0.1443,8.63,24.25,0.94,
86206,1661606220345,-1.1675,0.8742,0.6209,12.13,24.08,1.39,
86207,1661606220345,-1.1992,0.5979,0.1087,17.31,17.56,5.49,
86208,1661606220345,-1.0064,0.6858,0.0389,23.54,16.97,5.31,
86209,1661606220345,-1.001,0.8396,0.1233,22.62,20.86,8.24,
86210,1661606220345,-0.9829,0.7478,-0.0617,23.61,18.23,4.59,
86211,1661606220345,-0.9775,0.528,-0.3855,23.72,12.48,1.75,
86212,1661606220345,-0.9258,0.6516,0.1399,24.62,9.69,0.21,
86213,1661606220345,-1.1245,0.6613,-0.1203,31.11,-0.29,3.04,
86214,1661606220345,-0.9556,0.5637,-0.3195,32.71,0.81,0.67,
86215,1661606220345,-0.8677,0.6257,0.1565,32.42,8.93,-1.25,
86216,1661606220345,-0.8691,0.843,0.2351,31.52,13.17,-0.7,
86217,1661606220345,-0.8262,0.697,-0.2858,35.93,2.76,0.3,
86218,1661606220345,-0.8447,0.6345,0.2132,42.41,12.74,-0.79,
86219,1661606220345,-0.6631,0.6296,0.1126,44.5,4.53,-2.44,
86220,1661606220345,-0.7744,0.7077,-0.5422,45.11,5.39,-7.26,
86221,1661606220345,-0.7417,0.5637,-0.1579,41.32,2.59,-7.45,
86222,1661606220345,-0.7505,0.5027,-0.3327,41.51,-1.89,-10.91,
86223,1661606220345,-0.6699,0.7468,-0.4314,42.7,-5.02,-11.19,
86224,1661606220345,-0.7168,0.3806,-0.5061,48.21,-2.23,-11.92,
86225,1661606220345,-0.6904,0.2898,-0.1189,48.81,3.94,-9.64,
86226,1661606220345,-0.8433,0.4187,-0.1203,45.21,-9.77,-15.11,
86227,1661606220345,-0.8252,0.3357,-0.3405,44.9,-18.65,-16.76,
86228,1661606220345,-0.8237,0.0276,-0.1374,48.3,-0.96,-19.67,
86229,1661606220345,-0.7837,-0.1013,-0.1701,46.3,10.12,-19.49,
86230,1661606220345,-0.7705,-0.2698,-0.6203,38.81,-7.05,-14.12,
86231,1661606220345,-0.813,-0.4597,-0.1291,40.11,-15.17,-12.1,
86232,1661606220345,-0.9209,-0.7,-0.3054,36.51,-17.72,-6.72,
86233,1661606220345,-0.9917,-0.5613,-0.4836,29.92,-22.28,-6.99,
86234,1661606220345,-0.9863,-0.7786,0.0921,25.81,-27.69,-10.1,
86235,1661606220361,-1.022,-0.9217,-0.0105,25.92,-30.73,-6.36,
86236,1661606220361,-0.8428,-0.6702,-0.2072,22.52,-25.41,-6.36,
86237,1661606220361,-0.9815,-0.7664,0.4012,18.32,-14.76,-4.08,
86238,1661606220361,-0.9199,-0.7259,-0.0739,17.01,-30.49,-4.72,
86239,1661606220361,-1.0942,-0.6009,0.2063,14.52,-20.51,-0.89,
86240,1661606220361,-1.0469,-0.6502,0.2488,12.72,-14.16,-2.26,
86241,1661606220361,-1.0894,-0.5872,-0.0988,11.82,-10.94,2.03,
86242,1661606220361,-1.0225,-0.5325,0.0852,7.93,-17.72,1.75,
86243,1661606220361,-1.1255,-0.4187,0.1639,7.43,-26.0,-0.25,
86244,1661606220361,-1.0278,-0.4358,0.0921,7.82,-22.95,2.21,
86245,1661606220361,-1.2524,-0.3489,0.4607,2.42,-12.47,6.59,
86246,1661606220361,-1.1538,-0.2434,0.4109,0.85,-6.12,4.13,
86247,1661606220361,-1.1899,-0.2161,0.6009,-5.16,2.76,3.68,
86248,1661606220361,-1.1856,-0.1907,0.6409,3.24,9.86,5.95,
86249,1661606220361,-1.1719,-0.0833,0.2225,5.12,7.66,1.22,
86250,1661606220361,-1.1846,-0.0916,0.4934,7.82,13.67,-1.8,
86251,1661606220361,-1.27,-0.1922,0.4153,2.83,5.46,5.14,
86252,1661606220361,-1.2905,-0.2029,0.179,0.15,-1.22,5.86,
86253,1661606220361,-1.2002,-0.0393,0.1429,-5.38,-3.16,5.22,
86254,1661606220361,-1.1997,0.0691,0.3797,-1.27,2.93,5.86,
86255,1661606220361,-1.0908,0.0564,0.0208,4.22,-0.88,9.87,
86256,1661606220361,-1.0908,0.0578,0.0965,7.73,2.26,11.43,
86257,1661606220361,-1.3369,0.2048,0.741,7.82,8.42,7.14,
86258,1661606220361,-1.1314,0.2629,0.2732,7.43,3.27,10.88,
86259,1661606220361,-1.23,0.4831,0.4456,4.72,7.32,4.5,
86260,1661606220361,-0.9966,0.6931,0.7723,7.62,19.5,7.32,
86261,1661606220361,-1.0503,0.677,0.2005,12.92,7.83,5.22,
86262,1661606220361,-1.0835,0.6775,0.1106,16.63,21.19,5.22,
86263,1661606220361,-1.1221,0.8235,0.3699,20.84,18.49,8.15,
86264,1661606220361,-1.0669,0.8684,-0.0222,22.01,9.52,4.32,
86265,1661606220361,-0.8931,0.946,-0.2141,24.52,10.03,3.04,
86266,1661606220361,-0.9346,0.9387,0.0408,24.62,14.27,2.21,
86267,1661606220361,-0.8203,0.9157,-0.1477,30.02,10.03,3.4,
86268,1661606220361,-0.8931,0.9651,-0.1164,32.71,19.09,2.12,
86269,1661606220361,-0.9238,1.0237,0.0223,34.22,14.18,2.76,
86270,1661606220376,-0.9336,0.9612,-0.071,34.11,11.05,-0.52,
86271,1661606220376,-0.8311,0.9543,0.0335,37.91,14.6,-0.61,
86272,1661606220376,-0.9395,0.7737,-0.0822,41.91,11.22,-6.09,
86273,1661606220376,-0.8242,0.6799,-0.3132,44.02,14.18,-3.98,
86274,1661606220376,-0.7998,0.5822,-0.2678,48.61,16.88,-6.99,
86275,1661606220376,-0.79,0.4314,-0.2634,46.01,5.8,-5.27,
86276,1661606220376,-0.8472,0.3186,-0.59,43.71,-12.73,-7.72,
86277,1661606220376,-0.7261,0.2063,-0.302,45.31,-6.62,-4.44,
86278,1661606220376,-0.8369,0.2951,-0.2888,45.01,-7.9,-5.91,
86279,1661606220376,-0.6455,0.0661,-0.4538,42.23,-5.52,-6.18,
86280,1661606220376,-0.8838,-0.0457,-0.1164,40.52,-6.29,-8.64,
86281,1661606220382,-0.7852,0.0193,-0.2409,45.6,-11.79,-7.81,
86282,1661606220382,-0.8413,-0.0877,-0.3195,43.1,-16.69,-10.64,
86283,1661606220382,-0.6963,-0.0721,-0.0398,41.01,-2.56,-6.62,
86284,1661606220382,-0.8799,-0.0657,-0.2238,41.32,-11.44,-15.11,
86285,1661606220382,-0.8018,-0.3626,-0.5398,41.71,-17.29,-8.73,
86286,1661606220384,-0.8945,-0.2698,-0.2024,39.01,-21.61,-12.01,
86287,1661606220384,-0.9639,-0.2947,-0.0529,30.5,-22.19,-10.01,
86288,1661606220385,-0.9502,-0.4871,-0.3757,32.72,-23.04,-3.71,
86289,1661606220385,-0.8984,-0.4861,0.2112,27.81,-11.96,-3.34,
86290,1661606220385,-1.001,-0.4554,0.0476,22.91,-20.84,-4.17,
86291,1661606220385,-0.9473,-0.4959,-0.0529,23.22,-13.99,-1.99,
86292,1661606220385,-0.9717,-0.5955,0.3138,21.02,-9.58,-1.99,
86293,1661606220385,-0.9849,-0.5305,-0.0891,18.84,-13.31,-5.08,
86294,1661606220385,-1.0654,-0.5935,-0.1189,16.63,-13.56,-7.17,
86295,1661606220385,-1.0503,-0.7693,0.2937,12.93,-10.1,-2.7,
86296,1661606220385,-1.104,-0.7127,-0.3156,10.32,-19.65,-5.45,
86297,1661606220385,-1.1543,-0.6819,0.0154,9.82,-17.46,-9.46,
86298,1661606220385,-1.2173,-0.7513,0.514,4.92,-16.95,-6.46,
86299,1661606220385,-1.3125,-0.7849,0.346,-1.38,-25.57,-5.08,
86300,1661606220392,-1.1065,-0.5008,0.034,0.02,-17.88,2.49,
86301,1661606220392,-1.3252,-0.4705,1.013,2.63,-1.89,0.3,
86302,1661606220392,-1.2388,-0.4617,0.5745,1.83,-9.41,-1.71,
86303,1661606220392,-1.2661,-0.1907,0.2723,-1.17,-3.75,2.03,
86304,1661606220392,-1.2598,-0.0852,0.9441,1.03,3.43,1.66,
86305,1661606220392,-1.2378,-0.2449,0.5501,2.83,-3.66,6.41,
86306,1661606220392,-1.1743,-0.1443,-0.0398,2.42,4.03,9.87,
86307,1661606220392,-1.2188,0.2483,0.4988,-2.48,8.26,7.6,
86308,1661606220392,-1.1177,0.1985,0.1746,-3.27,3.1,11.98,
86309,1661606220392,-1.1509,0.1653,0.0267,1.32,0.9,10.6,
86310,1661606220392,-1.1357,0.4192,0.24,1.73,3.01,5.4,
86311,1661606220392,-1.0649,0.5114,0.3509,5.73,6.39,5.67,
86312,1661606220392,-1.1704,0.57,0.4837,9.53,15.61,1.22,
86313,1661606220392,-1.1328,0.6726,0.4217,14.22,13.92,2.94,
86314,1661606220392,-1.0586,0.7961,0.2708,13.73,22.38,1.13,
86315,1661606220392,-1.1323,0.8435,0.5208,14.92,26.18,-5.08,
86316,1661606220392,-1.1812,0.6115,0.0994,18.44,23.06,-0.89,
86317,1661606220392,-1.0742,0.5866,0.0545,20.21,20.86,-2.08,
86318,1661606220392,-1.0127,0.7986,0.1297,22.32,20.86,-0.89,
86319,1661606220392,-1.0117,0.695,-0.0564,24.12,15.95,4.32,
86320,1661606220392,-1.001,0.5476,-0.2878,26.82,7.66,4.59,
86321,1661606220392,-0.9185,0.657,0.0379,22.82,9.19,2.49,
86322,1661606220392,-0.978,0.6696,0.0437,29.41,0.81,-2.44,
86323,1661606220392,-0.9434,0.5774,-0.2287,32.71,4.29,0.49,
86324,1661606220392,-0.8496,0.6403,0.138,37.32,7.92,1.04,
86325,1661606220392,-0.8076,0.8205,0.16,34.62,10.03,-3.25,
86326,1661606220392,-0.8477,0.6877,-0.2385,37.62,0.81,-3.34,
86327,1661606220392,-0.898,0.5896,-0.1027,41.91,16.88,-2.35,
86328,1661606220392,-0.6607,0.612,-0.0017,43.91,6.73,-4.26,
86329,1661606220392,-0.7441,0.7175,-0.5559,43.51,11.64,-5.27,
86330,1661606220392,-0.7139,0.5974,-0.1325,45.91,7.16,-4.53,
86331,1661606220392,-0.7183,0.4812,-0.4401,39.41,-6.12,-8.91,
86332,1661606220392,-0.6597,0.7624,-0.3889,38.11,-8.83,-7.08,
86333,1661606220392,-0.7471,0.4402,-0.4216,45.11,-8.48,-9.46,
86334,1661606220392,-0.7012,0.2082,-0.3249,49.01,5.63,-6.9,
86335,1661606220407,-0.8154,0.3874,-0.1814,45.33,1.33,-12.28,
86336,1661606220407,-0.814,0.3503,-0.2536,42.11,-8.24,-13.2,
86337,1661606220407,-0.8262,-0.0105,-0.2902,48.61,-12.3,-14.92,
86338,1661606220407,-0.7993,-0.2146,-0.1628,48.5,4.03,-10.19,
86339,1661606220407,-0.8101,-0.3343,-0.5383,42.41,-0.88,-13.84,
86340,1661606220407,-0.7993,-0.4436,-0.2605,36.83,-10.77,-13.38,
86341,1661606220407,-0.9087,-0.7425,-0.3068,39.41,-23.28,-9.1,
86342,1661606220407,-0.9815,-0.6097,-0.3625,27.22,-24.4,-14.28,
86343,1661606220407,-0.9741,-0.74,0.0603,26.21,-24.57,-9.37,
86344,1661606220407,-1.0103,-0.9197,0.0501,27.22,-28.53,-9.0,
86345,1661606220407,-0.8462,-0.6975,-0.2038,25.52,-30.32,-7.45,
86346,1661606220407,-0.918,-0.7063,0.2908,14.41,-15.93,-6.99,
86347,1661606220407,-0.9321,-0.7107,0.2937,16.34,-22.95,-2.44,
86348,1661606220407,-1.0552,-0.6668,0.0389,17.22,-19.15,-2.53,
86349,1661606220407,-1.0918,-0.5305,0.2102,11.33,-18.81,1.84,
86350,1661606220407,-1.1025,-0.5237,-0.0129,9.82,-17.2,0.3,
86351,1661606220407,-1.0352,-0.5398,0.1609,7.43,-12.37,2.76,
86352,1661606220407,-1.0781,-0.3992,0.0525,6.02,-20.08,-0.89,
86353,1661606220407,-1.0127,-0.3553,0.1429,5.04,-19.49,0.67,
86354,1661606220407,-1.2256,-0.3411,0.5467,3.32,-11.96,-0.52,
86355,1661606220407,-1.2686,-0.2517,0.4202,0.83,-10.1,-0.43,
86356,1661606220407,-1.2485,-0.1931,0.3767,0.02,-1.05,1.04,
86357,1661606220407,-1.1958,-0.1726,0.6995,2.42,9.52,0.49,
86358,1661606220407,-1.2144,-0.1604,0.2351,5.73,5.13,2.49,
86359,1661606220407,-1.2017,-0.1648,0.4466,7.12,10.28,-0.79,
86360,1661606220407,-1.2881,-0.1834,0.5794,4.83,7.66,-0.43,
86361,1661606220407,-1.271,-0.2244,0.2146,3.32,3.1,4.41,
86362,1661606220407,-1.1963,-0.114,0.1565,-0.57,-3.16,2.03,
86363,1661606220407,-1.1997,0.0481,0.3787,-2.26,-1.72,8.24,
86364,1661606220407,-1.1733,0.0534,0.2298,-1.87,-3.66,4.59,
86365,1661606220407,-1.0991,0.1003,0.1678,2.73,4.1,13.52,
86366,1661606220407,-1.3315,0.2058,0.7215,6.13,6.99,12.43,
86367,1661606220407,-1.0908,0.3274,0.201,8.13,4.62,6.87,
86368,1661606220407,-1.0527,0.4406,0.1209,6.71,7.83,8.88,
86369,1661606220407,-1.0503,0.717,0.8269,8.22,25.35,-0.79,
86370,1661606220423,-1.0503,0.7082,0.2102,13.73,7.42,0.76,
86371,1661606220423,-1.0601,0.717,-0.0476,19.22,17.4,3.4,
86372,1661606220423,-1.0703,0.864,0.3103,20.52,21.96,0.21,
86373,1661606220423,-1.0488,0.8508,0.0516,20.41,10.79,-0.25,
86374,1661606220423,-0.9292,0.945,-0.2131,22.32,12.24,-1.89,
86375,1661606220423,-0.9644,0.9817,0.0647,27.52,19.26,-1.71,
86376,1661606220423,-0.8379,0.9192,-0.1086,29.72,15.53,-1.99,
86377,1661606220423,-0.9268,1.0378,0.0828,31.21,17.64,-4.62,
86378,1661606220423,-0.9009,1.009,0.0335,32.91,11.64,-4.17,
86379,1661606220423,-0.9004,0.945,-0.0881,38.0,10.62,-4.9,
86380,1661606220423,-0.8291,0.9196,0.0735,38.81,17.3,-3.8,
86381,1661606220423,-0.9468,0.7434,-0.0573,41.91,13.24,-7.91,
86382,1661606220423,-0.8335,0.6892,-0.3361,46.21,14.6,-7.54,
86383,1661606220423,-0.7739,0.5041,-0.1862,46.3,15.37,-11.74,
86384,1661606220423,-0.8535,0.3513,-0.4074,45.91,2.5,-7.72,
86385,1661606220423,-0.8482,0.3122,-0.6486,42.9,-9.17,-6.72,
86386,1661606220423,-0.7266,0.1999,-0.3664,47.11,-5.11,-6.53,
86387,1661606220423,-0.8574,0.2912,-0.2224,44.11,-5.45,-10.73,
86388,1661606220423,-0.6528,0.0764,-0.4348,39.41,-10.6,-7.08,
86389,1661606220423,-0.9033,-0.0218,-0.1584,41.01,-13.14,-6.53,
86390,1661606220423,-0.7485,0.0505,-0.1955,44.9,-11.44,-9.92,
86391,1661606220423,-0.8179,-0.0916,-0.3269,45.51,-10.35,-13.75,
86392,1661606220423,-0.7837,-0.0867,-0.0183,39.21,-5.19,-8.64,
86393,1661606220423,-0.8462,-0.3308,-0.4753,42.41,-16.1,-11.83,
86394,1661606220423,-0.7808,-0.2972,-0.2893,40.22,-16.43,-4.9,
86395,1661606220423,-0.8833,-0.2434,-0.0529,33.21,-12.73,-4.17,
86396,1661606220423,-0.938,-0.43,-0.4519,31.81,-19.99,-3.53,
86397,1661606220423,-0.9678,-0.4163,-0.0232,33.01,-19.91,-6.72,
86398,1661606220423,-1.0435,-0.408,0.1844,29.52,-19.06,-7.36,
86399,1661606220423,-1.0088,-0.4895,-0.1101,24.61,-19.82,-9.64,
86400,1661606220423,-0.9736,-0.4768,0.074,20.01,-11.79,-10.64,
86401,1661606220423,-0.9556,-0.593,0.285,20.62,-10.27,-9.0,
86402,1661606220423,-0.9556,-0.5667,-0.2087,21.62,-13.06,-9.37,
86403,1661606220423,-1.0625,-0.6111,0.012,17.22,-8.41,-5.45,
86404,1661606220438,-1.0552,-0.7195,0.158,13.22,-12.13,-5.08,
86405,1661606220438,-1.1177,-0.7039,-0.2287,9.53,-17.88,-0.34,
86406,1661606220438,-1.1763,-0.7073,0.055,6.63,-19.74,-1.25,
86407,1661606220438,-1.1675,-0.7239,0.3738,1.52,-22.19,2.67,
86408,1661606220438,-1.2158,-0.6082,0.1033,3.32,-28.2,2.76,
86409,1661606220438,-1.0864,-0.5281,0.1018,-0.68,-19.32,6.68,
86410,1661606220442,-1.2979,-0.4915,0.8435,-1.17,-1.13,6.59,
86411,1661606220442,-1.2324,-0.4446,0.5574,0.83,-7.31,4.59,
86412,1661606220442,-1.252,-0.1858,0.2771,2.13,-3.08,6.87,
86413,1661606220443,-1.2349,-0.1004,0.8953,2.42,4.29,4.04,
86414,1661606220443,-1.2398,-0.2469,0.5154,3.82,-1.98,10.15,
86415,1661606220443,-1.1538,-0.1277,-0.0266,2.73,5.22,7.41,
86416,1661606220443,-1.2256,0.2331,0.5262,-0.68,7.66,4.87,
86417,1661606220443,-1.148,0.2092,0.1683,-0.77,2.84,8.7,
86418,1661606220443,-1.1724,0.1921,0.0403,-0.25,0.4,4.41,
86419,1661606220443,-1.1572,0.4265,0.3465,-3.06,4.46,3.31,
86420,1661606220443,-1.0547,0.4865,0.3392,5.03,2.26,7.14,
86421,1661606220443,-1.1362,0.5427,0.3772,6.72,11.14,4.87,
86422,1661606220443,-1.1133,0.6838,0.4563,12.52,15.2,3.4,
86423,1661606220443,-1.0913,0.8239,0.3162,12.54,23.82,2.67,
86424,1661606220443,-1.1421,0.7737,0.4207,15.02,23.91,0.4,
86425,1661606220443,-1.1787,0.6091,0.2278,16.72,21.53,-6.18,
86426,1661606220443,-1.0122,0.6975,0.0945,20.03,18.83,-3.71,
86427,1661606220443,-0.9795,0.781,0.0203,22.12,14.94,-2.08,
86428,1661606220443,-0.9951,0.677,0.0286,24.32,15.87,-0.34,
86429,1661606220443,-0.9678,0.5593,-0.2048,28.51,9.45,0.76,
86430,1661606220443,-0.8862,0.6731,-0.0905,28.82,11.81,1.48,
86431,1661606220443,-1.1338,0.6296,-0.0075,28.51,6.23,-1.71,
86432,1661606220443,-0.9356,0.5324,-0.1125,31.81,5.72,0.03,
86433,1661606220443,-0.8394,0.634,0.0354,34.24,8.51,-2.53,
86434,1661606220443,-0.7915,0.8283,0.1726,34.72,15.44,-0.89,
86435,1661606220443,-0.8506,0.6809,-0.2307,37.41,4.36,-1.99,
86436,1661606220443,-0.835,0.6111,-0.0471,41.12,12.24,0.12,
86437,1661606220443,-0.6729,0.6047,-0.0764,41.51,4.2,-3.07,
86438,1661606220443,-0.791,0.6838,-0.3527,44.21,8.0,-4.72,
86439,1661606220443,-0.7495,0.5778,-0.2785,42.02,-1.63,-3.16,
86440,1661606220455,-0.7461,0.5466,-0.4216,43.41,-3.42,-2.08,
86441,1661606220455,-0.7007,0.7297,-0.3454,44.7,-3.92,-1.71,
86442,1661606220455,-0.7505,0.3684,-0.4787,45.53,-1.63,-4.99,
86443,1661606220455,-0.728,0.3186,-0.1091,42.61,-0.2,-7.63,
86444,1661606220455,-0.8682,0.4465,-0.1023,43.01,-10.27,-11.09,
86445,1661606220455,-0.812,0.3225,-0.3244,43.13,-14.33,-16.11,
86446,1661606220455,-0.8174,-0.0262,-0.2761,50.41,1.66,-17.3,
86447,1661606220455,-0.771,-0.1863,-0.1887,44.7,1.83,-15.66,
86448,1661606220455,-0.794,-0.3279,-0.6218,41.8,-11.11,-19.67,
86449,1661606220455,-0.8071,-0.4812,-0.2233,38.9,-16.86,-14.56,
86450,1661606220460,-0.9009,-0.722,-0.3303,33.01,-17.88,-5.91,
86451,1661606220460,-0.9829,-0.6028,-0.3659,30.12,-25.83,-12.56,
86452,1661606220460,-0.9771,-0.7718,0.1336,28.22,-25.41,-3.25,
86453,1661606220460,-0.9995,-0.8909,0.0393,26.51,-27.27,-5.82,
86454,1661606220460,-0.8706,-0.6985,-0.1926,20.21,-22.7,-3.71,
86455,1661606220460,-0.9292,-0.7508,0.3377,14.32,-18.05,-7.36,
86456,1661606220460,-0.8731,-0.7156,0.0535,19.62,-22.7,-4.9,
86457,1661606220460,-1.0767,-0.6355,0.0882,16.32,-16.53,-2.53,
86458,1661606220460,-1.0142,-0.617,0.178,10.02,-15.85,-0.43,
86459,1661606220460,-1.041,-0.5691,0.0725,8.42,-20.75,-4.9,
86460,1661606220460,-1.0581,-0.4949,0.0979,11.22,-16.78,-6.9,
86461,1661606220460,-1.0894,-0.3626,0.0442,8.52,-17.72,-1.53,
86462,1661606220460,-1.0498,-0.4016,0.2996,-0.86,-9.84,-0.98,
86463,1661606220460,-1.2275,-0.3221,0.5262,-0.97,-10.1,5.05,
86464,1661606220460,-1.1314,-0.2635,0.2815,4.63,-7.74,3.58,
86465,1661606220460,-1.1514,-0.2239,0.6648,5.93,2.43,-1.8,
86466,1661606220460,-1.207,-0.1761,0.7268,6.33,10.28,-0.89,
86467,1661606220460,-1.1987,-0.1663,0.1619,4.63,6.73,-4.53,
86468,1661606220460,-1.1997,-0.1829,0.4407,2.02,10.21,0.12,
86469,1661606220460,-1.2593,-0.2176,0.4705,-1.85,1.24,2.49,
86470,1661606220460,-1.2495,-0.1951,-0.0227,-1.96,-6.97,2.94,
86471,1661606220460,-1.1978,-0.0613,0.1004,-0.48,-1.82,6.32,
86472,1661606220460,-1.2266,0.0241,0.4598,1.52,5.13,8.79,
86473,1661606220460,-1.189,0.0759,0.1541,2.02,-0.7,13.43,
86474,1661606220460,-1.1065,0.1609,0.533,0.83,6.23,11.24,
86475,1661606220460,-1.2778,0.2995,0.6233,-0.46,4.03,8.06,
86476,1661606220460,-1.0298,0.3337,0.2386,4.74,-1.72,7.78,
86477,1661606220460,-1.0986,0.5656,0.3142,5.62,5.13,5.67,
86478,1661606220460,-1.2295,0.7624,0.6648,12.13,17.47,2.67,
86479,1661606220460,-1.084,0.6877,0.2107,15.42,15.03,9.06,
86480,1661606220460,-1.0659,0.7155,-0.1506,15.53,22.55,5.4,
86481,1661606220460,-1.0425,0.8987,0.2996,20.82,23.15,6.96,
86482,1661606220460,-0.876,0.7619,-0.2341,21.42,11.98,2.39,
86483,1661606220460,-0.9229,0.9416,-0.1213,26.21,11.22,1.3,
86484,1661606220460,-0.9219,1.0349,0.0691,27.61,4.79,4.77,
86485,1661606220476,-0.8706,0.9348,-0.0129,30.51,12.41,5.05,
86486,1661606220476,-0.9219,0.9802,0.0887,26.82,11.31,8.15,
86487,1661606220476,-0.898,0.9485,-0.0354,30.22,13.41,0.3,
86488,1661606220476,-0.7847,0.9543,-0.0124,36.62,15.87,-2.79,
86489,1661606220476,-0.9102,0.7893,-0.0178,43.51,19.93,-5.36,
86490,1661606220476,-0.9185,0.6819,-0.1828,45.6,17.06,-6.53,
86491,1661606220476,-0.8452,0.6296,-0.4221,42.63,9.86,-8.91,
86492,1661606220476,-0.7627,0.4963,-0.1828,41.32,5.72,-8.27,
86493,1661606220476,-0.8784,0.3078,-0.4006,43.21,-7.98,-7.17,
86494,1661606220476,-0.7695,0.2517,-0.5564,48.61,-10.35,-10.64,
86495,1661606220476,-0.8506,0.2019,-0.0988,45.21,-5.11,-6.18,
86496,1661606220476,-0.7466,0.2072,-0.3166,40.61,-10.86,-9.92,
86497,1661606220476,-0.6416,0.0705,-0.3493,37.71,-15.59,-7.45,
86498,1661606220476,-0.9194,0.0359,-0.0544,42.7,-8.74,-8.73,
86499,1661606220476,-0.773,0.0964,-0.1462,44.9,-14.59,-8.82,
86500,1661606220476,-0.8062,-0.032,-0.3488,38.71,-9.0,-12.65,
86501,1661606220476,-0.7783,-0.053,-0.0764,44.21,-6.29,-10.01,
86502,1661606220476,-0.8096,-0.3064,-0.5725,44.61,-13.99,-7.81,
86503,1661606220476,-0.7715,-0.2605,-0.2556,36.22,-14.83,-11.74,
86504,1661606220476,-0.8833,-0.2249,-0.1574,33.61,-13.56,-8.45,
86505,1661606220476,-0.9043,-0.448,-0.5114,38.11,-23.88,-9.55,
86506,1661606220476,-0.978,-0.4187,0.1175,29.34,-17.62,-4.72,
86507,1661606220476,-1.0581,-0.4383,0.1429,26.12,-19.82,-7.72,
86508,1661606220476,-0.9922,-0.4383,-0.1169,25.92,-15.33,-10.82,
86509,1661606220476,-1.0366,-0.5681,0.3836,25.52,-9.0,-7.63,
86510,1661606220476,-0.9815,-0.596,-0.0129,19.53,-8.32,-10.82,
86511,1661606220476,-0.9678,-0.6062,-0.0817,17.34,-12.21,-6.27,
86512,1661606220476,-1.0166,-0.7742,0.1497,13.62,-10.51,-9.37,
86513,1661606220476,-1.0259,-0.7786,0.0374,14.6,-13.92,-6.18,
86514,1661606220476,-1.1226,-0.7674,-0.3029,10.32,-15.33,-4.62,
86515,1661606220476,-1.1904,-0.742,0.0652,4.72,-21.61,1.22,
86516,1661606220476,-1.1714,-0.6814,0.2972,0.33,-23.28,4.68,
86517,1661606220491,-1.2632,-0.6448,0.1917,-3.16,-22.7,3.86,
86518,1661606220491,-1.1621,-0.5247,0.4143,-0.97,-16.53,8.24,
86519,1661606220491,-1.335,-0.4085,0.9578,-0.57,-1.3,5.31,
86520,1661606220491,-1.1602,-0.3172,0.2747,0.33,-10.1,8.15,
86521,1661606220491,-1.2417,-0.1761,0.2605,-0.37,3.69,4.96,
86522,1661606220491,-1.2383,-0.1023,0.8577,0.53,8.42,6.5,
86523,1661606220491,-1.2627,-0.1331,0.1209,0.93,1.14,3.13,
86524,1661606220491,-1.1094,0.112,0.1683,-1.07,5.46,7.05,
86525,1661606220491,-1.1997,0.2024,0.3958,-3.38,4.79,5.67,
86526,1661606220491,-1.1333,0.2346,0.1087,0.83,-1.22,12.43,
86527,1661606220491,-1.1802,0.2903,0.0476,2.33,-3.08,9.32,
86528,1661606220491,-1.061,0.5051,0.41,3.73,3.17,5.95,
86529,1661606220491,-1.063,0.4641,0.3201,3.32,5.13,6.68,
86530,1661606220491,-1.0742,0.5461,0.3714,8.63,17.06,0.76,
86531,1661606220491,-1.0376,0.7107,0.4041,10.42,18.57,5.95,
86532,1661606220491,-1.083,0.7512,0.2737,11.03,22.29,2.3,
86533,1661606220491,-1.1201,0.7238,0.389,13.03,21.45,-3.34,
86534,1661606220491,-1.2134,0.5798,0.3558,17.73,19.33,0.03,
86535,1661606220491,-1.0679,0.6408,0.0823,18.0,13.67,1.48,
86536,1661606220491,-0.9741,0.7038,0.0149,21.31,14.6,7.6,
86537,1661606220491,-1.0122,0.6335,0.0935,23.63,17.47,5.14,
86538,1661606220491,-0.9356,0.5598,-0.2116,23.43,6.9,4.59,
86539,1661606220491,-0.8643,0.6408,-0.153,24.3,8.68,-0.15,
86540,1661606220491,-1.1553,0.6443,0.0574,27.52,3.77,-1.34,
86541,1661606220491,-0.8921,0.5647,-0.1467,32.42,2.26,0.85,
86542,1661606220491,-0.8604,0.6335,0.012,34.31,5.97,-3.53,
86543,1661606220491,-0.7876,0.882,0.2942,36.01,12.15,-4.17,
86544,1661606220491,-0.856,0.7033,-0.2512,37.32,1.33,-7.54,
86545,1661606220491,-0.8169,0.6228,-0.1057,39.51,10.96,-6.46,
86546,1661606220491,-0.8735,0.7937,-0.1506,42.9,6.23,-10.73,
86547,1661606220491,-0.7944,0.7326,-0.1877,43.51,4.53,-11.92,
86548,1661606220491,-0.7778,0.5974,-0.2898,41.32,-8.48,-11.92,
86549,1661606220491,-0.7217,0.6091,-0.3449,42.31,7.42,-12.1,
86550,1661606220491,-0.686,0.7238,-0.2165,42.9,3.27,-14.02,
86551,1661606220491,-0.7451,0.3386,-0.6242,47.4,2.5,-12.93,
86552,1661606220507,-0.7056,0.3591,-0.1467,45.11,-5.02,-10.82,
86553,1661606220507,-0.8213,0.4743,-0.1779,45.82,-5.87,-9.74,
86554,1661606220507,-0.7622,0.0539,-0.5456,45.71,-7.31,-11.28,
86555,1661606220508,-0.8057,-0.2073,-0.0949,48.41,5.55,-9.28,
86556,1661606220508,-0.8115,-0.2298,-0.1291,45.11,-4.52,-11.55,
86557,1661606220508,-0.8203,-0.3094,-0.6862,42.9,-17.62,-12.56,
86558,1661606220508,-0.8237,-0.5222,-0.2434,37.32,-14.83,-6.18,
86559,1661606220508,-0.8857,-0.7312,-0.1413,33.81,-16.02,-11.64,
86560,1661606220508,-0.9971,-0.6082,-0.3776,29.21,-29.04,-9.37,
86561,1661606220508,-0.9668,-0.763,0.1155,23.51,-26.76,-12.01,
86562,1661606220508,-1.0459,-0.8665,0.1809,25.43,-24.64,-7.45,
86563,1661606220508,-0.8784,-0.7102,-0.382,23.52,-19.15,-3.62,
86564,1661606220508,-0.9468,-0.6541,0.2078,20.93,-14.24,-6.09,
86565,1661606220508,-0.938,-0.6746,0.2088,16.82,-28.03,-2.53,
86566,1661606220508,-1.0801,-0.6609,-0.1057,12.84,-26.67,0.21,
86567,1661606220508,-1.0234,-0.5823,0.1819,14.02,-12.37,3.22,
86568,1661606220508,-1.0571,-0.593,0.1687,9.62,-11.7,1.66,
86569,1661606220508,-1.188,-0.3865,-0.0305,10.22,-18.55,0.94,
86570,1661606220508,-1.0552,-0.2967,-0.0095,7.73,-21.44,2.76,
86571,1661606220508,-1.0713,-0.4222,0.368,2.63,-10.18,1.57,
86572,1661606220508,-1.2588,-0.3972,0.4241,2.53,-10.27,5.58,
86573,1661606220508,-1.1372,-0.2498,0.3304,0.33,-2.06,2.58,
86574,1661606220508,-1.1304,-0.1414,0.7293,1.52,5.04,1.3,
86575,1661606220508,-1.208,-0.1487,0.6531,3.12,4.62,-1.34,
86576,1661606220508,-1.1943,-0.2659,0.0716,4.13,5.8,-0.98,
86577,1661606220508,-1.1699,-0.2117,0.5901,3.84,12.48,2.3,
86578,1661606220508,-1.2358,-0.2112,0.3948,0.22,1.33,-0.34,
86579,1661606220508,-1.294,-0.2771,-0.0466,-4.17,-4.09,0.12,
86580,1661606220508,-1.2056,-0.1331,0.2068,-3.47,-0.2,1.94,
86581,1661606220508,-1.165,0.0608,0.4915,-0.88,5.72,4.68,
86582,1661606220508,-1.1987,0.1067,0.0374,0.42,1.91,6.77,
86583,1661606220508,-1.1045,0.1579,0.5042,2.33,10.62,5.05,
86584,1661606220508,-1.3232,0.2302,0.8338,1.52,10.12,6.96,
86585,1661606220508,-1.0957,0.3723,0.3216,5.82,-2.06,7.41,
86586,1661606220508,-1.0513,0.5598,0.2449,8.02,3.01,2.85,
86587,1661606220508,-1.1768,0.7317,0.7664,10.52,14.1,3.31,
86588,1661606220508,-1.0557,0.6848,0.2937,15.73,7.16,0.85,
86589,1661606220524,-1.0371,0.7473,-0.2609,20.82,17.14,5.58,
86590,1661606220524,-1.0635,0.8396,0.5447,21.52,33.2,4.59,
86591,1661606220524,-0.9385,0.7292,-0.1667,19.91,17.14,6.22,
86592,1661606220524,-0.9136,0.9773,-0.2243,20.32,9.86,1.3,
86593,1661606220524,-0.9063,1.0705,0.1126,23.61,11.38,-3.16,
86594,1661606220524,-0.856,0.8586,0.0301,30.01,17.06,0.03,
86595,1661606220524,-0.853,0.9528,-0.2087,30.91,12.48,-6.62,
86596,1661606220524,-0.8794,1.0017,0.0081,35.41,14.27,-2.89,
86597,1661606220524,-0.8218,0.927,-0.0427,36.01,14.68,-4.62,
86598,1661606220524,-0.9033,0.8401,-0.1057,38.61,17.99,-5.27,
86599,1661606220524,-0.9429,0.6384,-0.1252,42.61,14.1,-9.0,
86600,1661606220524,-0.8906,0.6545,-0.2233,43.6,9.45,-11.19,
86601,1661606220524,-0.7676,0.4489,-0.258,43.01,5.63,-11.19,
86602,1661606220524,-0.8828,0.3161,-0.3303,43.01,-2.65,-8.91,
86603,1661606220524,-0.7505,0.2922,-0.508,43.41,-2.65,-6.99,
86604,1661606220524,-0.8262,0.1662,-0.2141,45.13,-0.79,-9.64,
86605,1661606220524,-0.7153,0.2507,-0.3816,43.92,-5.78,-7.08,
86606,1661606220524,-0.6182,0.1374,-0.4558,41.01,-14.83,-10.73,
86607,1661606220524,-0.8931,0.0173,-0.2209,40.81,-11.03,-4.35,
86608,1661606220524,-0.7378,0.0188,-0.2453,45.91,-13.66,-8.64,
86609,1661606220524,-0.7661,-0.0506,-0.4104,44.6,-8.83,-13.29,
86610,1661606220524,-0.8164,-0.0525,-0.1325,43.12,-9.58,-14.02,
86611,1661606220524,-0.8008,-0.3704,-0.5222,38.9,-14.66,-8.82,
86612,1661606220524,-0.8149,-0.2327,-0.0539,39.51,-11.7,-5.91,
86613,1661606220524,-0.9399,-0.1907,-0.2483,36.23,-17.72,-5.54,
86614,1661606220524,-0.9175,-0.4344,-0.4289,30.71,-18.55,-6.53,
86615,1661606220524,-1.0137,-0.3645,0.3001,28.62,-16.19,-8.55,
86616,1661606220524,-1.0327,-0.45,-0.1218,28.42,-26.08,-7.36,
86617,1661606220524,-0.9824,-0.4197,-0.0881,26.32,-14.4,-9.64,
86618,1661606220524,-1.0815,-0.5628,0.3763,19.22,-7.48,-7.81,
86619,1661606220524,-0.9551,-0.5633,-0.2107,18.43,-17.2,-11.19,
86620,1661606220524,-0.9614,-0.6316,0.1067,18.32,-11.87,-5.91,
86621,1661606220524,-1.0415,-0.824,0.1004,14.63,-11.03,-2.61,
86622,1661606220524,-1.0244,-0.7454,-0.1228,10.43,-17.03,-1.99,
86623,1661606220540,-1.1279,-0.7171,-0.0105,9.93,-12.97,-0.43,
86624,1661606220540,-1.1978,-0.7688,0.2063,3.63,-21.09,0.03,
86625,1661606220540,-1.1138,-0.6795,0.1311,1.43,-24.57,0.21,
86626,1661606220540,-1.2857,-0.614,0.3733,-2.26,-20.51,2.49,
86627,1661606220540,-1.1206,-0.5081,0.3172,1.32,-16.1,6.41,
86628,1661606220540,-1.3242,-0.4329,0.7366,3.21,-2.82,3.04,
86629,1661606220540,-1.2988,-0.3743,0.7049,0.22,-4.94,4.23,
86630,1661606220540,-1.2676,-0.1751,0.2649,0.33,0.4,5.4,
86631,1661606220540,-1.229,-0.0862,0.7254,2.42,7.75,5.31,
86632,1661606220540,-1.2827,-0.1507,0.1687,2.33,0.56,9.06,
86633,1661606220540,-1.1143,-0.118,0.0276,3.52,10.12,14.16,
86634,1661606220540,-1.2295,0.1872,0.5345,-4.28,8.42,11.89,
86635,1661606220540,-1.1826,0.2409,0.1614,-3.67,0.31,7.51,
86636,1661606220540,-1.1948,0.3337,0.1263,-1.78,-1.05,7.51,
86637,1661606220547,-1.1792,0.4221,0.4251,1.43,4.29,10.79,
86638,1661606220547,-1.0679,0.4709,0.3265,5.73,-0.29,6.13,
86639,1661606220547,-1.0889,0.508,0.2581,9.73,14.77,6.22,
86640,1661606220547,-1.0669,0.7365,0.4725,9.23,21.19,5.58,
86641,1661606220547,-1.1387,0.7888,0.3074,11.82,25.51,1.39,
86642,1661606220547,-1.0835,0.6765,0.2557,13.74,25.01,-4.08,
86643,1661606220547,-1.1636,0.5852,0.2869,16.12,17.9,-2.26,
86644,1661606220547,-1.0361,0.6677,0.0579,18.63,12.24,0.67,
86645,1661606220547,-0.9653,0.653,-0.0393,20.62,12.07,1.75,
86646,1661606220547,-0.9697,0.6472,0.0911,21.92,16.8,4.23,
86647,1661606220547,-0.9282,0.6252,-0.1516,23.52,14.77,-1.25,
86648,1661606220547,-0.8755,0.6516,-0.2141,25.42,9.52,-0.15,
86649,1661606220547,-1.1177,0.6662,0.1536,29.32,7.49,-2.61,
86650,1661606220547,-0.8599,0.6272,-0.1335,28.91,5.13,-2.35,
86651,1661606220547,-0.9517,0.7888,0.0589,34.13,6.32,-0.79,
86652,1661606220547,-0.7734,0.9153,0.2181,34.71,11.47,-3.07,
86653,1661606220547,-0.8994,0.7009,-0.1921,38.81,-1.3,-0.43,
86654,1661606220554,-0.814,0.6145,-0.2443,41.12,5.39,-1.44,
86655,1661606220554,-0.8989,0.8249,-0.1086,43.12,2.67,-2.44,
86656,1661606220554,-0.875,0.653,-0.2639,42.51,10.21,-6.99,
86657,1661606220554,-0.793,0.612,-0.4704,42.81,-2.15,-7.45,
86658,1661606220554,-0.7119,0.6189,-0.3332,39.91,4.79,-8.91,
86659,1661606220554,-0.7339,0.6897,-0.1721,45.13,-8.41,-8.64,
86660,1661606220554,-0.7515,0.3737,-0.5691,49.2,-2.32,-10.38,
86661,1661606220554,-0.7119,0.3059,-0.0456,46.61,0.47,-10.55,
86662,1661606220554,-0.8013,0.4055,-0.2097,43.31,-3.25,-15.38,
86663,1661606220554,-0.7681,0.0403,-0.549,44.41,-10.35,-16.85,
86664,1661606220554,-0.8296,-0.2268,-0.0085,47.91,3.43,-12.74,
86665,1661606220554,-0.8384,-0.2942,-0.4592,44.9,-9.77,-10.38,
86666,1661606220554,-0.8916,-0.4178,-0.5168,38.61,-13.99,-13.29,
86667,1661606220554,-0.9028,-0.6809,-0.0256,36.91,-12.54,-8.73,
86668,1661606220554,-1.0088,-0.6565,-0.3371,33.81,-17.55,-7.26,
86669,1661606220554,-0.9985,-0.6248,-0.365,27.52,-28.37,-9.19,
86670,1661606220554,-0.8897,-0.7337,0.1663,27.02,-23.28,-4.62,
86671,1661606220554,-0.9902,-0.8562,0.1346,26.01,-23.97,-1.16,
86672,1661606220554,-0.895,-0.7395,-0.2849,20.82,-19.82,-1.8,
86673,1661606220554,-0.9951,-0.6429,0.2469,18.82,-16.43,-8.27,
86674,1661606220554,-0.9522,-0.6946,0.2864,15.54,-20.75,-7.91,
86675,1661606220554,-1.0913,-0.6663,-0.1525,14.34,-22.78,-0.7,
86676,1661606220554,-0.9907,-0.5403,0.1829,11.74,-9.08,-2.08,
86677,1661606220554,-1.0845,-0.5887,0.2259,9.93,-12.04,-0.34,
86678,1661606220554,-1.1626,-0.4314,-0.0832,7.44,-19.99,-2.17,
86679,1661606220554,-1.1157,-0.2957,0.0813,6.53,-20.92,-2.98,
86680,1661606220566,-1.0659,-0.4202,0.4036,2.73,-6.45,-0.89,
86681,1661606220566,-1.1929,-0.3899,0.2923,2.22,-6.81,-1.99,
86682,1661606220566,-1.1187,-0.2542,0.2249,1.43,-0.03,1.04,
86683,1661606220566,-1.1694,-0.1824,0.6492,0.62,0.47,-3.8,
86684,1661606220566,-1.2441,-0.2776,0.3177,2.92,-0.88,4.77,
86685,1661606220566,-1.1924,-0.3006,0.1409,4.13,3.01,-0.89,
86686,1661606220566,-1.187,-0.2044,0.5149,1.32,10.03,-1.44,
86687,1661606220566,-1.1973,-0.1873,0.3792,-4.75,1.24,1.66,
86688,1661606220566,-1.2959,-0.2542,0.0686,-5.87,-4.09,3.4,
86689,1661606220566,-1.167,-0.1111,0.5364,-1.78,1.4,8.79,
86690,1661606220566,-1.1948,-0.0237,0.511,0.53,2.17,8.51,
86691,1661606220566,-1.2134,0.1018,0.1141,1.83,-0.96,5.05,
86692,1661606220566,-1.0859,0.1921,0.5335,1.32,9.02,9.23,
86693,1661606220566,-1.272,0.3249,0.6712,2.63,10.71,1.48,
86694,1661606220566,-1.0806,0.4153,0.2371,2.22,2.67,6.87,
86695,1661606220566,-0.9893,0.6071,0.1731,6.63,9.95,6.96,
86696,1661606220566,-1.1738,0.7497,0.7703,8.42,17.64,7.6,
86697,1661606220566,-1.0649,0.698,0.2723,15.12,8.93,10.33,
86698,1661606220566,-0.9849,0.7527,-0.3615,20.01,17.47,5.86,
86699,1661606220566,-1.0659,0.9079,0.6751,20.43,29.31,5.95,
86700,1661606220566,-0.9522,0.7761,-0.2185,18.82,10.96,4.32,
86701,1661606220566,-0.8901,0.9563,-0.1657,21.02,12.24,1.48,
86702,1661606220566,-0.9238,1.0593,0.3113,27.22,15.03,0.3,
86703,1661606220566,-0.9448,0.8557,0.0872,29.92,16.54,-3.62,
86704,1661606220566,-0.8594,0.9695,-0.1311,30.33,19.0,-6.0,
86705,1661606220566,-0.8975,1.032,0.1468,32.71,21.96,-6.72,
86706,1661606220566,-0.793,0.9011,-0.2971,37.12,11.47,-5.45,
86707,1661606220566,-0.8848,0.6638,-0.1692,44.31,15.61,-9.19,
86708,1661606220566,-0.9053,0.6457,-0.1154,42.9,15.11,-9.19,
86709,1661606220566,-0.9058,0.6545,-0.3742,42.7,5.55,-10.01,
86710,1661606220566,-0.7905,0.4543,-0.3435,42.51,2.84,-6.27,
86711,1661606220566,-0.938,0.3127,-0.0427,42.31,-4.42,-8.0,
86712,1661606220566,-0.7896,0.2946,-0.5451,40.61,-4.09,-2.89,
86713,1661606220566,-0.7739,0.1618,-0.2888,44.31,-0.12,-6.62,
86714,1661606220566,-0.7246,0.2795,0.0154,44.81,-3.08,-6.53,
86715,1661606220582,-0.7041,0.1477,-0.175,39.12,-13.56,-9.0,
86716,1661606220582,-0.9058,-0.0296,-0.3518,38.61,-12.37,-7.72,
86717,1661606220582,-0.6792,0.0735,-0.156,43.41,-7.31,-6.27,
86718,1661606220582,-0.7466,0.0197,-0.3503,45.4,-3.92,-9.64,
86719,1661606220582,-0.7964,-0.0481,-0.3781,44.02,-6.81,-8.36,
86720,1661606220582,-0.8096,-0.3513,-0.55,42.11,-15.0,-10.29,
86721,1661606220582,-0.8721,-0.1663,-0.0036,37.21,-19.15,-9.74,
86722,1661606220582,-0.9756,-0.1922,-0.363,35.41,-19.91,-10.64,
86723,1661606220582,-0.9009,-0.4534,-0.2722,31.61,-10.27,-5.82,
86724,1661606220582,-0.999,-0.3323,0.3064,26.01,-13.31,-11.55,
86725,1661606220582,-1.0029,-0.4622,-0.2566,29.41,-23.28,-7.26,
86726,1661606220582,-0.9824,-0.4807,0.0872,28.64,-3.16,-5.63,
86727,1661606220582,-1.0855,-0.595,0.2674,21.02,-4.94,-3.8,
86728,1661606220589,-0.9492,-0.6175,-0.3132,17.11,-16.78,-8.18,
86729,1661606220589,-0.9766,-0.6844,0.22,17.22,-17.36,-5.72,
86730,1661606220589,-1.0791,-0.7469,0.2312,15.33,-12.3,-2.61,
86731,1661606220589,-0.9766,-0.743,-0.3342,9.23,-19.65,1.39,
86732,1661606220589,-1.0918,-0.7366,0.1126,7.93,-14.59,1.48,
86733,1661606220589,-1.1939,-0.8367,0.2474,7.64,-19.49,2.94,
86734,1661606220589,-1.0606,-0.6927,-0.0022,4.02,-20.08,1.04,
86735,1661606220589,-1.3042,-0.6155,0.6062,-3.97,-13.47,3.68,
86736,1661606220589,-1.0947,-0.5388,0.2649,-2.87,-16.62,5.49,
86737,1661606220589,-1.2061,-0.4895,0.2747,0.02,-4.52,10.15,
86738,1661606220589,-1.3228,-0.3181,0.7493,1.93,-2.06,6.59,
86739,1661606220589,-1.2871,-0.1692,0.2991,-1.58,-7.14,8.33,
86740,1661606220589,-1.2212,-0.1248,0.4676,-1.17,0.21,6.96,
86741,1661606220589,-1.2744,-0.0872,0.2967,-1.47,-2.75,6.96,
86742,1661606220589,-1.1377,-0.0511,0.1604,-0.57,5.22,11.52,
86743,1661606220589,-1.2153,0.2097,0.4256,-1.17,6.65,10.42,
86744,1661606220589,-1.1675,0.2868,0.2454,-1.47,3.01,10.05,
86745,1661606220589,-1.1831,0.323,0.2459,-0.46,1.33,3.49,
86746,1661606220589,-1.1607,0.5051,0.5774,-0.17,9.45,0.94,
86747,1661606220589,-1.0752,0.4724,0.3914,4.31,3.01,4.59,
86748,1661606220589,-1.0503,0.5608,0.263,5.52,15.37,4.32,
86749,1661606220589,-1.0171,0.7175,0.4515,10.32,19.33,3.58,
86750,1661606220589,-0.9951,0.6726,0.031,12.32,17.06,2.58,
86751,1661606220589,-1.0518,0.6311,0.1165,14.41,20.1,-2.44,
86752,1661606220599,-1.145,0.5793,0.3758,16.02,21.62,-2.26,
86753,1661606220599,-1.0425,0.6218,-0.0949,19.31,12.31,-0.52,
86754,1661606220599,-0.9517,0.6052,-0.0808,16.52,14.77,2.39,
86755,1661606220599,-1.1094,0.5446,0.2986,18.92,21.36,5.14,
86756,1661606220599,-0.9341,0.6491,-0.0383,24.12,10.45,1.57,
86757,1661606220599,-0.8447,0.6765,-0.3615,24.42,6.32,2.3,
86758,1661606220599,-1.148,0.6403,0.4241,26.62,11.72,1.57,
86759,1661606220599,-0.8901,0.6257,-0.0329,29.72,4.36,-4.53,
86760,1661606220599,-0.8814,0.7756,-0.1272,31.73,10.12,-5.36,
86761,1661606220599,-0.7627,0.9328,0.241,33.41,16.8,-7.26,
86762,1661606220599,-0.9292,0.7317,-0.1325,37.52,3.27,-6.18,
86763,1661606220599,-0.7857,0.5925,-0.5866,40.51,0.21,-7.54,
86764,1661606220599,-0.8877,0.9011,-0.0852,42.9,2.5,-8.09,
86765,1661606220599,-0.9204,0.6579,-0.2307,42.81,5.89,-5.27,
86766,1661606220599,-0.79,0.5359,-0.6003,44.11,-7.9,-6.72,
86767,1661606220599,-0.7148,0.6745,-0.2741,40.41,3.43,-9.0,
86768,1661606220599,-0.75,0.7346,-0.0383,44.9,-6.04,-14.02,
86769,1661606220599,-0.7642,0.3625,-0.6418,47.2,0.47,-14.02,
86770,1661606220599,-0.7656,0.3283,0.0267,49.01,7.83,-16.39,
86771,1661606220599,-0.813,0.4353,-0.094,46.11,1.14,-13.66,
86772,1661606220599,-0.7788,0.05,-0.6628,46.11,-9.67,-18.66,
86773,1661606220599,-0.8154,-0.2513,-0.0612,44.11,3.1,-11.64,
86774,1661606220599,-0.8145,-0.2639,-0.5461,43.01,-6.71,-14.28,
86775,1661606220599,-0.876,-0.4661,-0.6228,42.22,-10.18,-8.18,
86776,1661606220599,-0.8794,-0.6043,-0.2468,37.01,-19.49,-10.91,
86777,1661606220599,-0.8106,-0.699,-0.1193,34.31,-25.31,-2.89,
86778,1661606220599,-1.021,-0.6253,-0.3718,27.72,-25.24,-7.36,
86779,1661606220599,-0.9175,-0.7268,0.2102,24.82,-16.78,-9.83,
86780,1661606220599,-1.0347,-0.843,0.2483,24.62,-22.7,-6.0,
86781,1661606220599,-0.8867,-0.7112,-0.2038,23.32,-19.58,-4.26,
86782,1661606220599,-1.0259,-0.5974,0.2127,16.02,-18.39,-7.81,
86783,1661606220599,-0.9985,-0.6922,0.3567,16.82,-18.98,-9.19,
86784,1661606220599,-1.0967,-0.6116,-0.2536,14.22,-22.61,-7.08,
86785,1661606220599,-1.002,-0.49,0.198,9.42,-8.24,-0.06,
86786,1661606220615,-1.1177,-0.5999,0.1048,7.03,-16.69,-1.16,
86787,1661606220615,-1.1113,-0.3699,-0.1579,6.22,-21.77,-3.07,
86788,1661606220615,-1.1094,-0.2234,0.2156,8.92,-20.16,0.67,
86789,1661606220615,-1.1035,-0.3992,0.4866,7.52,-5.71,2.21,
86790,1661606220615,-1.1943,-0.4441,0.2723,1.52,-5.52,2.58,
86791,1661606220615,-1.1318,-0.2591,0.3719,-2.97,4.03,-0.25,
86792,1661606220615,-1.1733,-0.1453,0.7098,-1.27,3.53,-3.34,
86793,1661606220618,-1.2412,-0.2888,0.3108,1.23,2.84,0.03,
86794,1661606220618,-1.187,-0.3645,0.1316,3.82,1.66,2.12,
86795,1661606220618,-1.1821,-0.2698,0.4339,-0.07,9.52,3.77,
86796,1661606220618,-1.1655,-0.2234,0.3836,-0.17,7.42,5.58,
86797,1661606220618,-1.2964,-0.3636,0.0081,-2.77,3.01,8.51,
86798,1661606220618,-1.2432,-0.2366,0.1824,-7.67,-0.88,10.42,
86799,1661606220618,-1.1401,0.011,0.4432,-6.28,-4.09,13.43,
86800,1661606220618,-1.2227,0.1003,0.1692,-1.07,-3.49,14.89,
86801,1661606220618,-1.0693,0.1413,0.4075,4.53,5.63,13.33,
86802,1661606220618,-1.2451,0.3278,0.7391,1.73,12.99,7.14,
86803,1661606220618,-1.1265,0.4455,0.4226,1.43,9.45,7.87,
86804,1661606220618,-1.0044,0.5681,0.1536,3.93,11.81,3.04,
86805,1661606220618,-1.1602,0.7229,0.7073,8.52,17.99,3.77,
86806,1661606220618,-1.0635,0.7834,-0.1672,13.82,9.19,4.87,
86807,1661606220618,-0.9824,0.7815,-0.3166,19.74,16.13,4.96,
86808,1661606220618,-1.0591,0.9011,0.6043,18.21,30.67,2.85,
86809,1661606220618,-0.9404,0.8034,-0.2854,16.02,8.68,5.31,
86810,1661606220618,-0.8716,0.9729,-0.2961,16.92,11.98,1.39,
86811,1661606220618,-0.9175,1.0739,0.2976,23.52,14.44,1.48,
86812,1661606220618,-0.9668,0.8669,0.0794,29.41,14.44,0.58,
86813,1661606220618,-0.8369,0.945,-0.2522,33.91,13.41,-5.36,
86814,1661606220618,-0.9023,1.028,0.2527,31.21,21.96,-3.62,
86815,1661606220618,-0.8325,0.8532,-0.1618,35.12,16.04,-7.54,
86816,1661606220618,-0.9126,0.6242,-0.1989,40.41,14.77,-7.17,
86817,1661606220630,-0.898,0.6125,-0.0144,43.8,12.57,-7.81,
86818,1661606220630,-0.9004,0.6589,-0.2951,44.9,5.04,-5.45,
86819,1661606220630,-0.77,0.4079,-0.3757,41.01,5.46,-6.62,
86820,1661606220630,-0.9448,0.261,-0.0651,39.41,2.17,-11.09,
86821,1661606220630,-0.7925,0.3415,-0.5627,40.41,-12.89,-9.28,
86822,1661606220630,-0.7046,0.2273,-0.3283,44.11,-8.41,-10.73,
86823,1661606220630,-0.7183,0.3308,0.0057,42.31,-2.15,-6.99,
86824,1661606220630,-0.7227,0.1921,-0.2414,41.61,-16.1,-10.82,
86825,1661606220630,-0.8369,0.0168,-0.4279,40.0,-6.21,-9.92,
86826,1661606220630,-0.6558,0.1076,-0.0124,44.61,-2.75,-7.81,
86827,1661606220630,-0.7832,0.0144,-0.2556,46.9,-0.46,-11.0,
86828,1661606220630,-0.7935,-0.0642,-0.3977,40.51,-11.11,-12.56,
86829,1661606220630,-0.8081,-0.2742,-0.3537,39.91,-17.03,-8.45,
86830,1661606220630,-0.8784,-0.1136,0.0125,39.61,-9.34,-9.1,
86831,1661606220630,-0.9263,-0.2068,-0.5417,34.92,-16.62,-11.37,
86832,1661606220630,-0.8594,-0.43,-0.1501,29.12,-13.4,-6.0,
86833,1661606220630,-1.022,-0.3626,0.263,29.4,-15.26,-7.26,
86834,1661606220630,-1.0239,-0.4944,-0.2717,30.01,-21.09,-6.53,
86835,1661606220630,-0.9736,-0.451,0.24,24.21,-9.17,-8.45,
86836,1661606220630,-1.0147,-0.6028,0.1238,19.42,-8.41,-2.17,
86837,1661606220630,-1.0117,-0.6414,-0.2834,18.12,-16.69,-4.99,
86838,1661606220630,-1.0293,-0.6302,0.0467,20.72,-8.48,-7.36,
86839,1661606220630,-1.0645,-0.7434,0.2478,19.42,-9.77,-8.18,
86840,1661606220630,-0.9717,-0.7693,-0.4616,6.33,-19.32,-7.63,
86841,1661606220630,-1.0674,-0.7737,0.2205,4.63,-12.8,-5.45,
86842,1661606220630,-1.2036,-0.8103,0.1878,4.63,-21.94,-1.62,
86843,1661606220630,-0.9614,-0.6985,-0.2014,4.42,-23.8,-1.62,
86844,1661606220630,-1.3062,-0.6438,0.7478,-0.48,-9.67,0.85,
86845,1661606220630,-1.0933,-0.5569,0.2474,-1.58,-15.0,5.49,
86846,1661606220630,-1.2207,-0.4856,0.0838,-1.38,-6.21,10.69,
86847,1661606220630,-1.3242,-0.282,0.9764,-2.87,5.13,5.58,
86848,1661606220630,-1.2681,-0.1878,0.2972,-0.68,-8.24,6.22,
86849,1661606220630,-1.1773,-0.2117,0.2679,-1.38,2.93,7.23,
86850,1661606220630,-1.3047,-0.0862,0.5003,-4.06,1.57,8.6,
86851,1661606220630,-1.1826,-0.0642,0.2664,-3.87,3.1,13.98,
86852,1661606220630,-1.1753,0.1179,0.1766,-3.26,3.69,12.62,
86853,1661606220630,-1.1875,0.3508,0.2708,-2.57,4.53,14.07,
86854,1661606220646,-1.1675,0.3396,0.2166,-2.07,-0.2,9.6,
86855,1661606220646,-1.1768,0.466,0.4519,1.72,8.85,6.96,
86856,1661606220646,-1.0728,0.4802,0.3992,3.73,6.32,2.3,
86857,1661606220646,-1.0518,0.5349,0.3406,5.52,15.2,4.13,
86858,1661606220646,-1.0684,0.7126,0.4934,8.83,19.26,7.05,
86859,1661606220646,-1.1191,0.716,0.2366,11.12,17.81,4.13,
86860,1661606220646,-1.021,0.6262,0.2078,12.83,22.13,3.68,
86861,1661606220646,-1.1035,0.612,0.4031,15.62,22.55,7.51,
86862,1661606220646,-1.0913,0.5949,-0.0998,17.22,17.3,2.3,
86863,1661606220646,-0.9683,0.573,-0.1472,19.31,8.51,2.76,
86864,1661606220646,-0.877,0.6662,0.1932,18.92,15.03,3.95,
86865,1661606220651,-0.9644,0.7238,0.011,21.81,3.69,3.49,
86866,1661606220651,-0.856,0.6726,-0.4167,21.22,2.26,1.66,
86867,1661606220651,-1.0957,0.6296,0.4842,23.63,18.16,-0.52,
86868,1661606220651,-1.0991,0.6213,0.4143,27.61,10.45,0.12,
86869,1661606220651,-0.8608,0.6794,-0.3537,33.52,7.75,-1.89,
86870,1661606220651,-0.854,0.924,0.3763,36.43,17.81,-4.99,
86871,1661606220651,-0.98,0.7463,0.0183,37.41,7.07,-5.54,
86872,1661606220651,-0.7022,0.5886,-0.719,39.51,2.0,-6.09,
86873,1661606220651,-0.6943,0.6657,-0.2888,39.01,7.58,-8.09,
86874,1661606220651,-0.8672,0.7937,0.1097,42.52,7.32,-9.1,
86875,1661606220651,-0.7827,0.5754,-0.8982,42.02,-13.31,-8.82,
86876,1661606220651,-0.7275,0.7468,-0.2224,41.8,12.24,-10.38,
86877,1661606220651,-0.8091,0.6931,-0.009,45.31,-2.56,-7.45,
86878,1661606220651,-0.7334,0.3498,-0.8088,44.9,-13.9,-6.62,
86879,1661606220651,-0.7637,0.3547,0.1062,46.3,-3.42,-8.82,
86880,1661606220651,-0.8306,0.3728,-0.1076,47.01,2.0,-10.82,
86881,1661606220651,-0.7876,0.2082,-0.5876,47.4,0.73,-12.47,
86882,1661606220651,-0.8384,-0.1785,-0.2346,46.41,8.76,-10.82,
86883,1661606220651,-0.8272,-0.2332,-0.1447,40.51,-14.4,-14.47,
86884,1661606220651,-0.752,-0.3509,-0.8444,42.72,-13.4,-9.1,
86885,1661606220651,-0.9209,-0.6365,-0.1574,40.81,-7.55,-9.28,
86886,1661606220651,-0.7959,-0.6341,-0.219,30.51,-21.94,-11.28,
86887,1661606220651,-1.0342,-0.6292,-0.4187,29.61,-35.31,-5.82,
86888,1661606220651,-0.9199,-0.6814,0.2493,26.62,-21.26,-1.25,
86889,1661606220651,-1.0015,-0.7737,0.1126,22.12,-21.61,-7.36,
86890,1661606220651,-0.9082,-0.7268,-0.1809,19.02,-19.65,-7.17,
86891,1661606220651,-1.0469,-0.5716,0.2225,22.12,-16.19,-8.0,
86892,1661606220651,-1.0059,-0.68,0.2986,19.53,-14.4,-2.08,
86893,1661606220651,-1.1426,-0.5935,-0.2365,12.13,-29.63,-2.7,
86894,1661606220651,-1.0347,-0.4324,0.2727,12.13,-9.77,-0.06,
86895,1661606220651,-1.02,-0.5672,0.3206,9.42,-17.55,0.21,
86896,1661606220651,-1.019,-0.5672,-0.1501,7.62,-14.4,-2.98,
86897,1661606220651,-1.0503,-0.2942,0.011,4.63,-20.68,5.14,
86898,1661606220651,-1.1211,-0.3953,0.4622,2.92,-9.0,-2.7,
86899,1661606220667,-1.1904,-0.4236,0.1961,3.52,-12.04,-1.07,
86900,1661606220667,-1.1738,-0.2742,0.3758,0.83,2.67,-2.79,
86901,1661606220667,-1.1631,-0.2444,0.6028,-0.17,1.4,-4.17,
86902,1661606220667,-1.2192,-0.1927,0.4939,3.03,3.77,3.95,
86903,1661606220667,-1.1802,-0.3802,0.2967,0.12,0.81,2.12,
86904,1661606220667,-1.1934,-0.2903,0.4349,-2.68,2.26,2.67,
86905,1661606220667,-1.1504,-0.2137,0.3968,-2.97,3.27,6.22,
86906,1661606220667,-1.2656,-0.2967,0.2312,-2.17,1.91,5.58,
86907,1661606220667,-1.2847,-0.2727,0.2806,0.15,1.24,12.43,
86908,1661606220667,-1.1318,-0.034,0.4026,-3.58,2.17,8.6,
86909,1661606220667,-1.2622,0.0979,0.2889,-5.77,-2.23,7.69,
86910,1661606220667,-1.1499,0.1428,0.2908,-2.75,-6.04,10.15,
86911,1661606220667,-1.2798,0.1916,0.5828,0.73,5.3,14.16,
86912,1661606220667,-1.1353,0.446,0.4051,4.22,13.75,7.96,
86913,1661606220667,-1.0132,0.5984,0.2039,4.72,13.84,6.5,
86914,1661606220667,-1.0869,0.5866,0.4754,5.62,24.92,11.15,
86915,1661606220667,-1.0693,0.7116,0.346,9.53,17.81,6.5,
86916,1661606220667,-0.9492,0.7907,-0.343,9.61,9.52,0.76,
86917,1661606220675,-1.0537,0.9128,0.4915,16.02,21.12,6.5,
86918,1661606220675,-1.1221,0.7839,0.3499,22.01,8.85,3.77,
86919,1661606220675,-0.894,0.8215,-0.573,25.92,14.18,0.94,
86920,1661606220675,-0.9243,1.0774,0.3211,21.22,20.26,-0.15,
86921,1661606220675,-0.9917,0.8366,0.0408,25.34,12.57,-0.25,
86922,1661606220675,-0.8335,0.8757,-0.2258,29.41,8.18,-2.35,
86923,1661606220675,-0.8472,1.0022,0.0813,31.32,23.56,-3.53,
86924,1661606220675,-0.9458,1.0031,0.0945,37.01,19.93,-1.34,
86925,1661606220675,-0.8589,0.6775,-0.4148,39.21,19.17,-5.91,
86926,1661606220675,-0.8857,0.5803,0.075,36.71,19.67,-6.81,
86927,1661606220675,-0.8999,0.6589,-0.3459,36.91,4.29,-5.27,
86928,1661606220675,-0.7661,0.3908,-0.5866,43.31,-4.35,-8.45,
86929,1661606220675,-0.8149,0.2478,-0.1721,43.41,1.24,-7.91,
86930,1661606220675,-0.9648,0.3611,-0.1394,37.41,-4.09,-6.09,
86931,1661606220675,-0.7085,0.3078,-0.6594,41.41,-11.11,-5.63,
86932,1661606220675,-0.8848,0.2341,0.011,40.81,-2.23,-3.98,
86933,1661606220675,-0.7358,0.2502,-0.1154,40.0,-7.05,-3.98,
86934,1661606220675,-0.8203,0.0471,-0.5525,39.71,-10.18,-4.08,
86935,1661606220675,-0.6768,0.1228,0.0892,42.41,-2.65,-4.9,
86936,1661606220675,-0.8052,0.0827,-0.2375,41.12,-8.67,-7.17,
86937,1661606220675,-0.8418,-0.0345,-0.4802,42.31,-5.78,-5.63,
86938,1661606220675,-0.8306,-0.115,-0.5232,40.11,-13.66,-6.62,
86939,1661606220675,-0.8081,-0.2381,-0.0774,37.41,-9.93,-2.35,
86940,1661606220675,-0.9365,-0.1253,-0.3073,35.32,-17.72,-6.0,
86941,1661606220675,-0.8369,-0.3655,-0.4382,33.91,-13.31,-5.08,
86942,1661606220675,-0.9419,-0.4051,0.2415,26.21,-10.86,-16.85,
86943,1661606220675,-0.9756,-0.3577,-0.0808,28.51,-18.81,-9.55,
86944,1661606220675,-1.0156,-0.4593,-0.0212,28.22,-12.04,-14.38,
86945,1661606220675,-1.0259,-0.4959,0.3553,22.01,-3.84,-14.02,
86946,1661606220675,-1.041,-0.6629,-0.2902,20.12,-17.12,-14.74,
86947,1661606220675,-1.0425,-0.6204,0.1106,18.21,-11.79,-7.36,
86948,1661606220675,-1.0659,-0.7742,0.285,15.02,-12.97,-5.54,
86949,1661606220675,-0.9741,-0.7908,-0.486,10.42,-22.95,-0.89,
86950,1661606220675,-0.9663,-0.7405,0.1897,7.32,-11.28,1.94,
86951,1661606220691,-1.2197,-0.8313,0.5017,3.93,-15.0,5.58,
86952,1661606220691,-1.1157,-0.7932,-0.2522,0.13,-29.04,6.5,
86953,1661606220693,-1.2134,-0.6487,0.2727,-2.66,-16.36,12.16,
86954,1661606220693,-1.3296,-0.5677,0.885,0.02,-12.04,10.05,
86955,1661606220693,-1.1489,-0.51,-0.115,-3.47,-22.95,7.32,
86956,1661606220693,-1.2954,-0.283,0.9236,-3.67,4.46,5.67,
86957,1661606220693,-1.2681,-0.1878,0.4388,0.62,-2.49,7.32,
86958,1661606220693,-1.1714,-0.26,-0.0407,-0.97,7.66,11.24,
86959,1661606220693,-1.1914,-0.1194,0.6072,-4.48,11.38,10.24,
86960,1661606220693,-1.2417,0.0056,0.4236,-3.67,0.47,4.87,
86961,1661606220693,-1.1416,0.0525,0.0091,-2.37,-3.75,5.05,
86962,1661606220693,-1.2139,0.3108,0.4871,0.42,1.07,3.86,
86963,1661606220693,-1.1372,0.2741,0.427,0.42,1.83,5.86,
86964,1661606220693,-1.1338,0.3357,0.1687,0.83,4.2,5.49,
86965,1661606220693,-1.0479,0.4914,0.4383,0.02,10.62,9.06,
86966,1661606220693,-1.1314,0.4992,0.4065,-0.57,10.79,5.77,
86967,1661606220693,-1.0591,0.5935,0.3382,4.22,21.87,8.24,
86968,1661606220693,-1.0796,0.6716,0.2517,9.82,19.33,8.15,
86969,1661606220693,-1.0186,0.6115,0.221,12.63,24.66,1.13,
86970,1661606220693,-1.0723,0.6042,0.2586,12.83,22.29,5.05,
86971,1661606220693,-1.1318,0.6535,0.1375,13.12,19.26,1.39,
86972,1661606220693,-1.0523,0.5901,-0.1648,19.54,8.76,0.94,
86973,1661606220693,-0.8701,0.5974,0.0818,20.44,12.91,0.49,
86974,1661606220693,-1.0742,0.7126,0.1004,20.21,8.59,-0.7,
86975,1661606220693,-0.877,0.6892,-0.2058,25.11,2.67,3.04,
86976,1661606220702,-0.8174,0.6086,-0.0944,23.72,2.5,1.57,
86977,1661606220702,-1.1128,0.6921,0.4319,25.02,11.38,-3.98,
86978,1661606220702,-0.8535,0.7522,-0.2473,30.12,5.63,-0.79,
86979,1661606220702,-0.8301,0.9211,0.1653,31.11,18.57,0.21,
86980,1661606220702,-0.9155,0.9353,0.323,36.01,18.4,2.76,
86981,1661606220702,-0.8711,0.5398,-0.4133,36.42,10.96,3.22,
86982,1661606220702,-0.6704,0.7009,-0.2815,39.71,12.07,4.77,
86983,1661606220702,-0.8579,0.882,0.0501,42.61,7.83,1.13,
86984,1661606220702,-0.7783,0.5407,-0.8234,44.61,-4.85,-5.36,
86985,1661606220702,-0.7241,0.5525,-0.653,39.71,-4.42,-4.53,
86986,1661606220702,-0.7788,0.7102,0.2312,38.32,-2.82,-4.08,
86987,1661606220702,-0.7793,0.5178,-0.5915,48.3,-7.81,-5.45,
86988,1661606220702,-0.6885,0.4216,-0.3591,49.8,4.96,-8.27,
86989,1661606220702,-0.8457,0.3025,0.2166,44.41,14.94,-7.54,
86990,1661606220702,-0.7622,0.1877,-0.6399,40.41,-7.48,-10.29,
86991,1661606220702,-0.8486,-0.178,-0.2229,46.3,-7.98,-13.2,
86992,1661606220702,-0.8706,-0.283,0.0808,46.61,-3.16,-11.55,
86993,1661606220702,-0.8384,-0.2517,-0.6057,42.31,-8.83,-10.45,
86994,1661606220702,-0.8335,-0.5232,-0.5066,32.62,-12.04,-16.39,
86995,1661606220702,-0.9297,-0.6336,-0.0661,35.41,-23.64,-7.08,
86996,1661606220702,-0.8672,-0.594,-0.4802,30.01,-28.11,-14.47,
86997,1661606220702,-1.083,-0.6839,0.01,21.72,-18.98,-5.27,
86998,1661606220702,-0.9712,-0.6648,0.3821,25.22,-24.14,-3.16,
86999,1661606220702,-0.9805,-0.8098,-0.1931,25.22,-21.44,-0.15,
87000,1661606220702,-0.8247,-0.5506,0.0564,18.63,-17.2,-3.8,
87001,1661606220702,-0.9439,-0.5467,0.1565,19.54,-8.83,-0.52,
87002,1661606220702,-1.0117,-0.7044,-0.0358,19.02,-11.79,0.67,
87003,1661606220702,-1.0317,-0.5135,0.0569,9.12,-17.03,2.49,
87004,1661606220702,-1.0303,-0.5262,0.2801,4.72,-26.5,2.76,
87005,1661606220702,-1.1099,-0.5232,0.0516,9.32,-28.37,-1.25,
87006,1661606220702,-1.0405,-0.4505,-0.052,9.03,-11.2,-0.61,
87007,1661606220702,-1.0435,-0.3196,0.2234,0.93,-0.79,0.85,
87008,1661606220702,-1.1528,-0.3811,0.4031,-0.57,-7.81,-0.79,
87009,1661606220702,-1.2183,-0.3875,0.2146,2.42,-13.31,2.39,
87010,1661606220718,-1.1523,-0.2249,0.5169,4.53,-4.52,-1.71,
87011,1661606220718,-1.2139,-0.1648,0.5135,-1.47,-2.15,-1.16,
87012,1661606220718,-1.271,-0.281,0.3406,-0.77,7.07,0.67,
87013,1661606220718,-1.2022,-0.3909,0.3103,-0.17,8.51,2.76,
87014,1661606220718,-1.1831,-0.24,0.3074,-0.57,7.58,2.12,
87015,1661606220718,-1.2319,-0.2776,0.3142,-3.77,-2.23,4.5,
87016,1661606220718,-1.3691,-0.3553,0.3763,-7.27,-5.19,5.67,
87017,1661606220718,-1.2134,-0.1971,0.3518,-6.87,-8.07,7.14,
87018,1661606220718,-1.1069,0.052,0.3562,-6.37,-0.53,5.67,
87019,1661606220718,-1.2095,0.1799,0.4964,-1.87,3.94,4.87,
87020,1661606220718,-1.2725,0.1613,0.5242,-0.48,10.03,9.32,
87021,1661606220718,-1.1875,0.2361,0.5467,1.03,8.42,8.7,
87022,1661606220718,-1.063,0.5036,0.3211,0.93,10.38,7.23,
87023,1661606220718,-1.083,0.5891,0.368,5.52,14.6,7.69,
87024,1661606220718,-1.0791,0.7019,0.2723,7.64,17.64,6.41,
87025,1661606220718,-0.9849,0.7746,-0.1262,9.82,11.72,4.87,
87026,1661606220718,-0.9517,0.8664,0.013,11.03,23.15,5.58,
87027,1661606220718,-1.1148,0.7795,0.3797,16.82,21.79,2.03,
87028,1661606220718,-0.9307,0.802,-0.4445,20.32,5.3,-0.43,
87029,1661606220718,-0.8716,0.9377,-0.1711,20.91,16.04,-2.7,
87030,1661606220718,-0.9727,1.0925,0.4168,25.74,18.16,-4.72,
87031,1661606220718,-0.9312,0.7722,-0.1687,23.42,22.05,-3.25,
87032,1661606220718,-0.8262,0.9885,0.0926,24.32,25.18,-6.9,
87033,1661606220718,-0.9473,1.0061,0.0984,29.92,20.43,-10.91,
87034,1661606220718,-0.8516,0.6257,-0.5451,44.12,8.0,-11.64,
87035,1661606220729,-0.856,0.5437,0.0262,41.93,17.23,-8.82,
87036,1661606220729,-0.8731,0.6506,0.0218,34.01,12.57,-10.38,
87037,1661606220729,-0.8921,0.5988,-0.7248,36.52,-0.7,-9.64,
87038,1661606220729,-0.79,0.2292,-0.2238,39.53,-0.46,-8.45,
87039,1661606220729,-0.959,0.3283,0.0061,41.71,-9.77,-8.36,
87040,1661606220729,-0.6797,0.3567,-0.7287,40.22,-17.36,-6.36,
87041,1661606220729,-0.8232,0.2063,0.0013,36.81,1.57,-9.74,
87042,1661606220729,-0.8145,0.3015,0.0433,38.81,7.07,-5.72,
87043,1661606220729,-0.7764,0.2121,-0.5329,40.41,-10.94,-10.19,
87044,1661606220729,-0.8457,0.0559,-0.3894,41.61,-8.24,-11.37,
87045,1661606220729,-0.7896,0.1887,0.1224,42.7,-5.62,-9.74,
87046,1661606220729,-0.8047,-0.0638,-0.6081,43.42,-6.45,-13.75,
87047,1661606220729,-0.7686,-0.1243,-0.5974,40.51,-12.37,-9.28,
87048,1661606220729,-0.8159,-0.2088,-0.0227,36.11,-12.63,-8.55,
87049,1661606220729,-0.9292,-0.1648,-0.4963,35.21,-22.45,-5.91,
87050,1661606220729,-0.8906,-0.2464,-0.3645,28.91,-15.93,-3.07,
87051,1661606220729,-0.9898,-0.386,0.2937,28.62,-11.54,-2.79,
87052,1661606220729,-0.9595,-0.3011,-0.1569,28.42,-19.32,-8.73,
87053,1661606220729,-1.0166,-0.4383,0.096,30.42,-13.9,-6.81,
87054,1661606220729,-0.9995,-0.4988,0.2986,24.44,-2.91,-12.93,
87055,1661606220729,-0.959,-0.5657,-0.0305,18.32,-15.76,-8.64,
87056,1661606220729,-1.0049,-0.6526,-0.2292,15.92,-11.28,-8.09,
87057,1661606220729,-1.0361,-0.7674,0.325,16.92,-10.51,-5.45,
87058,1661606220729,-1.0571,-0.8196,-0.2243,11.22,-18.48,-2.44,
87059,1661606220729,-1.002,-0.7532,-0.2658,6.63,-20.51,-2.35,
87060,1661606220729,-1.1509,-0.8055,0.4949,5.43,-15.33,-1.34,
87061,1661606220729,-1.1538,-0.8382,-0.1955,4.33,-24.31,1.75,
87062,1661606220729,-1.1553,-0.6448,0.2268,-4.67,-14.92,1.22,
87063,1661606220729,-1.3799,-0.5657,1.0306,-1.87,-6.62,6.13,
87064,1661606220729,-1.1387,-0.5262,-0.0925,-0.88,-24.98,7.41,
87065,1661606220729,-1.1602,-0.4412,0.0955,-3.16,-2.82,8.6,
87066,1661606220729,-1.249,-0.2547,1.097,-2.97,3.43,5.31,
87067,1661606220729,-1.2441,-0.2679,0.0032,-2.97,-4.94,7.51,
87068,1661606220745,-1.2192,-0.0413,0.4183,-3.85,5.72,2.76,
87069,1661606220745,-1.29,0.0344,0.4812,-3.79,2.76,6.96,
87070,1661606220745,-1.1397,-0.0843,0.1263,-2.48,2.84,8.51,
87071,1661606220745,-1.1934,0.0822,0.1756,-6.87,5.97,9.23,
87072,1661606220745,-1.1401,0.3264,0.4422,-4.96,2.43,6.5,
87073,1661606220745,-1.1406,0.3684,0.1717,-3.77,-2.56,8.79,
87074,1661606220745,-1.2095,0.3684,0.3582,-1.07,11.38,4.41,
87075,1661606220745,-1.1416,0.466,0.5286,3.12,7.66,5.67,
87076,1661606220745,-1.0142,0.5217,0.2391,6.13,17.14,5.58,
87077,1661606220745,-1.0581,0.613,0.2991,7.62,18.07,1.3,
87078,1661606220745,-1.1758,0.5964,0.2874,10.83,27.62,5.77,
87079,1661606220745,-1.0947,0.5993,0.178,11.93,24.83,-1.34,
87080,1661606220745,-1.0708,0.6037,0.0892,10.13,22.72,2.85,
87081,1661606220745,-1.0737,0.6257,-0.0109,9.33,8.68,-1.99,
87082,1661606220745,-0.9385,0.5505,-0.0192,14.41,7.42,2.76,
87083,1661606220745,-0.9409,0.6184,0.1438,20.01,15.61,5.05,
87084,1661606220745,-0.8506,0.7976,-0.0163,24.12,16.04,3.77,
87085,1661606220745,-0.7671,0.6609,-0.1506,25.52,10.54,3.4,
87086,1661606220745,-1.1274,0.7282,0.4065,23.02,18.16,0.49,
87087,1661606220745,-0.9561,0.7712,0.2517,24.32,7.92,-3.89,
87088,1661606220745,-0.8174,0.758,-0.3108,28.31,6.23,-5.72,
87089,1661606220745,-0.9414,0.969,0.219,35.52,12.41,-4.72,
87090,1661606220745,-0.9043,0.6198,-0.3728,38.61,9.19,-1.34,
87091,1661606220745,-0.6475,0.7658,-0.3781,37.62,13.75,-2.89,
87092,1661606220745,-0.8648,0.9714,0.012,39.8,12.57,0.49,
87093,1661606220745,-0.8794,0.6653,-0.3366,43.12,2.0,-4.9,
87094,1661606220745,-0.7095,0.5622,-0.5603,40.9,-3.75,-3.34,
87095,1661606220745,-0.752,0.7619,0.2146,38.61,-2.65,-4.26,
87096,1661606220745,-0.7593,0.5232,-0.6042,43.21,-11.44,-4.9,
87097,1661606220745,-0.7124,0.4343,-0.2863,45.8,9.02,-3.71,
87098,1661606220745,-0.8853,0.2121,0.1712,46.23,12.57,-5.36,
87099,1661606220745,-0.8814,0.2155,-0.3098,42.03,-4.52,-4.26,
87100,1661606220745,-0.7725,0.0344,-0.6652,44.9,-7.05,-7.36,
87101,1661606220745,-0.8794,-0.3313,0.1004,45.8,-2.56,-4.81,
87102,1661606220745,-0.8403,-0.2683,-0.6809,41.01,-17.88,-7.81,
87103,1661606220745,-0.7988,-0.5589,-0.5202,35.52,-11.44,-2.61,
87104,1661606220761,-0.9277,-0.6536,0.0286,32.82,-14.66,-11.09,
87105,1661606220761,-0.794,-0.5564,-0.4875,29.11,-29.72,-6.9,
87106,1661606220761,-1.0825,-0.7176,0.1311,25.11,-24.64,-5.91,
87107,1661606220761,-0.9473,-0.6429,0.3875,25.42,-14.76,-10.64,
87108,1661606220763,-0.9683,-0.7835,-0.195,23.02,-18.65,-7.08,
87109,1661606220763,-0.8154,-0.5525,0.0808,20.21,-19.49,-6.62,
87110,1661606220763,-0.9419,-0.5296,0.0408,15.53,-20.84,-1.99,
87111,1661606220763,-0.981,-0.718,0.0032,16.72,-9.51,2.49,
87112,1661606220763,-1.1333,-0.5916,-0.1247,15.12,-15.33,-1.16,
87113,1661606220763,-1.0293,-0.4099,0.16,6.85,-14.66,3.68,
87114,1661606220763,-1.0571,-0.5345,0.0476,5.53,-28.46,0.4,
87115,1661606220763,-1.0005,-0.4915,-0.0627,5.32,-18.48,1.75,
87116,1661606220763,-1.0488,-0.3367,0.2156,4.22,-7.39,4.96,
87117,1661606220763,-1.1577,-0.3782,0.3826,2.82,-1.63,-0.25,
87118,1661606220763,-1.2393,-0.3684,0.3177,-0.88,-4.94,0.12,
87119,1661606220763,-1.2437,-0.3206,0.4178,-2.17,3.27,-0.15,
87120,1661606220763,-1.1655,-0.2444,0.3509,-0.97,-2.06,-0.43,
87121,1661606220763,-1.229,-0.3084,0.2264,-0.57,1.4,-1.25,
87122,1661606220763,-1.1919,-0.4197,0.4065,-0.37,3.69,2.58,
87123,1661606220763,-1.2158,-0.2508,0.1936,-2.97,0.4,6.68,
87124,1661606220763,-1.2378,-0.2083,0.1521,-6.28,-2.56,1.94,
87125,1661606220763,-1.3403,-0.3157,0.4954,-5.07,2.43,4.68,
87126,1661606220763,-1.2573,-0.2234,0.367,-8.78,-7.55,3.04,
87127,1661606220763,-1.04,0.0569,0.1487,-9.57,-8.91,5.49,
87128,1661606220763,-1.2495,0.2341,0.6673,-5.97,-4.85,10.79,
87129,1661606220763,-1.1231,0.239,0.7317,-1.47,0.56,10.42,
87130,1661606220763,-1.1519,0.2639,0.3416,0.33,5.97,7.78,
87131,1661606220763,-1.0742,0.5407,0.3758,-0.27,17.47,6.5,
87132,1661606220763,-1.0625,0.6936,0.2727,5.43,18.66,9.78,
87133,1661606220763,-1.0806,0.6023,0.2171,6.83,18.74,6.96,
87134,1661606220763,-1.0068,0.7517,-0.0139,8.02,12.82,4.04,
87135,1661606220763,-0.9917,0.8938,-0.0505,11.62,13.08,7.78,
87136,1661606220763,-1.0752,0.7614,0.3626,15.53,18.4,1.22,
87137,1661606220763,-1.0835,0.7751,0.0511,21.22,9.52,2.85,
87138,1661606220763,-0.8892,0.8547,-0.1164,20.01,20.43,-1.89,
87139,1661606220763,-0.9121,1.0554,0.3269,18.12,19.84,-1.44,
87140,1661606220763,-0.9399,0.7932,-0.052,22.01,19.59,1.13,
87141,1661606220763,-0.8374,0.8894,0.0408,26.71,19.76,-3.89,
87142,1661606220763,-0.9658,0.9963,0.2493,30.12,25.51,-3.43,
87143,1661606220779,-0.9258,0.8249,-0.2175,36.91,12.41,-4.35,
87144,1661606220779,-0.9131,0.5261,-0.3161,39.61,16.21,-7.63,
87145,1661606220779,-0.8433,0.5988,0.0198,34.51,11.55,-5.82,
87146,1661606220779,-0.8921,0.632,-0.6101,35.52,-2.32,-8.73,
87147,1661606220779,-0.7832,0.2737,-0.3005,42.7,-2.23,-1.25,
87148,1661606220779,-0.9868,0.2868,0.1443,43.12,-1.39,-2.7,
87149,1661606220779,-0.9531,0.4362,-0.1955,35.3,-16.19,-1.07,
87150,1661606220779,-0.584,0.3147,-0.615,37.91,-8.24,-5.36,
87151,1661606220779,-0.773,0.3376,0.22,40.89,8.93,-4.99,
87152,1661606220779,-0.7964,0.2776,-0.3767,43.01,-4.59,-0.79,
87153,1661606220779,-0.8125,0.0754,-0.4836,43.21,0.81,-4.99,
87154,1661606220779,-0.7852,0.1799,0.1751,39.8,-6.04,-6.27,
87155,1661606220779,-0.9116,0.1408,-0.0764,40.81,-19.82,-8.45,
87156,1661606220779,-0.7593,-0.0774,-0.8015,44.31,-15.26,-11.83,
87157,1661606220779,-0.8071,-0.0804,-0.2356,38.22,4.36,-10.73,
87158,1661606220779,-0.7861,-0.1868,-0.2131,33.53,-9.58,-12.01,
87159,1661606220779,-0.8506,-0.218,-0.5896,32.91,-17.2,-10.38,
87160,1661606220779,-0.8462,-0.4046,0.0467,31.21,-10.27,-7.45,
87161,1661606220779,-0.9404,-0.4051,0.032,23.52,-14.92,-6.81,
87162,1661606220779,-0.9888,-0.3377,-0.2116,21.81,-15.33,-6.9,
87163,1661606220779,-1.0005,-0.5393,0.2347,26.12,-7.05,-8.64,
87164,1661606220779,-0.9883,-0.5579,-0.0456,21.02,-13.31,-9.92,
87165,1661606220779,-1.0469,-0.6409,-0.1911,17.53,-16.69,-7.72,
87166,1661606220779,-1.0503,-0.7288,0.2674,14.63,-15.69,-6.53,
87167,1661606220779,-1.0386,-0.8177,-0.0803,12.83,-15.33,-3.16,
87168,1661606220779,-1.0244,-0.7752,-0.1984,6.92,-19.82,-5.54,
87169,1661606220779,-1.0464,-0.74,0.4114,3.12,-11.44,-3.25,
87170,1661606220779,-1.2217,-0.8694,0.325,0.42,-22.45,2.21,
87171,1661606220779,-1.0005,-0.7508,-0.2741,-0.48,-24.9,1.84,
87172,1661606220779,-1.2656,-0.5628,0.6302,-3.16,-6.81,4.77,
87173,1661606220779,-1.2148,-0.5638,0.66,0.13,-8.48,3.68,
87174,1661606220779,-1.1558,-0.4402,-0.0774,-1.38,-13.14,1.94,
87175,1661606220794,-1.2412,-0.2566,0.9432,-7.97,2.33,0.85,
87176,1661606220794,-1.2163,-0.2952,0.7166,-4.19,-10.77,-0.89,
87177,1661606220794,-1.0967,-0.3201,-0.028,-0.97,7.83,5.95,
87178,1661606220794,-1.2432,-0.0706,0.7478,-4.77,11.64,3.68,
87179,1661606220794,-1.2114,-0.0594,0.2757,-6.17,3.36,6.96,
87180,1661606220794,-1.2012,0.0456,0.1536,-8.87,0.81,1.94,
87181,1661606220794,-1.2046,0.3484,0.6248,-9.07,5.46,5.67,
87182,1661606220794,-1.1411,0.3191,0.3411,-4.37,0.05,9.78,
87183,1661606220794,-1.1509,0.3498,0.2098,-2.97,14.51,2.12,
87184,1661606220794,-1.1025,0.4758,0.5833,1.83,16.21,5.22,
87185,1661606220794,-1.0195,0.5505,0.1766,2.83,14.27,6.41,
87186,1661606220794,-1.043,0.6003,0.2434,4.02,16.97,-0.61,
87187,1661606220794,-1.1426,0.5564,0.3289,8.52,15.78,3.77,
87188,1661606220794,-1.0552,0.5715,0.1155,9.53,14.68,1.84,
87189,1661606220794,-1.0244,0.6037,0.1399,11.03,9.69,0.58,
87190,1661606220794,-1.124,0.6306,0.2557,11.12,17.81,6.04,
87191,1661606220794,-1.0586,0.6125,-0.051,13.93,13.84,1.3,
87192,1661606220794,-0.8809,0.6179,0.0789,14.52,12.41,0.49,
87193,1661606220802,-0.8779,0.8249,0.1541,16.92,8.0,2.21,
87194,1661606220802,-0.981,0.7126,-0.0993,20.72,1.5,5.95,
87195,1661606220802,-0.9434,0.6731,-0.0832,24.62,5.97,2.3,
87196,1661606220802,-1.0215,0.8112,0.3206,26.62,16.97,1.3,
87197,1661606220802,-0.8418,0.7878,-0.3733,30.13,8.0,0.94,
87198,1661606220802,-0.8023,0.8552,-0.299,30.31,20.19,-1.16,
87199,1661606220802,-0.8984,0.946,0.0306,34.91,8.59,-2.08,
87200,1661606220802,-0.7305,0.5759,-0.4587,36.22,6.39,-2.53,
87201,1661606220802,-0.8223,0.9236,-0.1613,37.73,2.59,-6.81,
87202,1661606220802,-0.853,0.82,-0.2536,35.12,0.4,-12.65,
87203,1661606220802,-0.752,0.5637,-0.4836,38.9,-8.15,-12.01,
87204,1661606220802,-0.833,0.7849,0.1468,41.21,9.52,-4.26,
87205,1661606220802,-0.7847,0.7541,0.0608,41.01,2.17,-9.37,
87206,1661606220802,-0.6968,0.4533,-0.6242,45.01,1.83,-14.12,
87207,1661606220802,-0.7754,0.3689,-0.0026,44.11,3.01,-11.09,
87208,1661606220802,-0.8711,0.1994,-0.323,42.11,-0.03,-16.3,
87209,1661606220802,-0.7358,0.0984,-0.6594,44.5,-5.71,-14.47,
87210,1661606220802,-0.8618,-0.305,-0.0178,43.12,1.14,-11.37,
87211,1661606220802,-0.8301,-0.3235,-0.6599,39.61,-13.66,-14.12,
87212,1661606220802,-0.7461,-0.5105,-0.5324,38.9,-17.88,-12.28,
87213,1661606220802,-0.9185,-0.6648,0.0506,34.83,-16.78,-10.1,
87214,1661606220802,-0.7315,-0.5452,-0.5109,30.22,-21.18,-9.37,
87215,1661606220802,-0.9463,-0.6297,-0.365,28.01,-23.64,-5.63,
87216,1661606220802,-1.1231,-0.7249,0.4475,25.54,-21.09,-8.0,
87217,1661606220802,-0.999,-0.6951,0.0271,23.52,-23.28,-6.27,
87218,1661606220802,-0.9746,-0.7293,-0.0158,18.92,-5.95,-5.91,
87219,1661606220802,-0.9771,-0.4803,0.1766,18.12,-12.8,-3.34,
87220,1661606220802,-0.9482,-0.6761,-0.1233,20.01,-13.99,-1.16,
87221,1661606220802,-1.0806,-0.6653,0.0027,12.02,-24.05,-3.89,
87222,1661606220802,-1.0195,-0.4524,0.1433,5.73,-16.53,-0.06,
87223,1661606220802,-1.0244,-0.5804,0.0603,7.43,-16.62,-0.15,
87224,1661606220802,-1.0176,-0.5349,0.0984,7.82,-13.23,-0.7,
87225,1661606220802,-1.0762,-0.345,0.1678,3.52,-17.2,1.22,
87226,1661606220802,-1.0796,-0.326,0.2889,0.13,-7.05,-4.72,
87227,1661606220802,-1.2275,-0.3885,0.4461,0.33,-5.52,-1.53,
87228,1661606220818,-1.2202,-0.3738,0.3738,0.33,1.66,-2.44,
87229,1661606220818,-1.1445,-0.2942,0.3108,-3.97,-0.2,-2.53,
87230,1661606220818,-1.187,-0.3089,0.2386,-4.17,1.24,-1.25,
87231,1661606220818,-1.1807,-0.3719,0.2933,-1.27,3.1,1.57,
87232,1661606220820,-1.2319,-0.4036,0.2713,-0.48,4.1,3.04,
87233,1661606220820,-1.2437,-0.2498,0.1619,-5.67,-3.25,1.22,
87234,1661606220820,-1.2568,-0.3357,0.4778,-8.18,-0.96,2.58,
87235,1661606220820,-1.3276,-0.2615,0.3753,-11.57,-2.82,5.31,
87236,1661606220820,-0.9858,-0.0037,0.1922,-6.37,0.21,7.14,
87237,1661606220820,-1.1929,0.0988,0.4534,-5.27,7.42,7.51,
87238,1661606220820,-1.1607,0.218,0.7801,-2.97,13.58,8.33,
87239,1661606220820,-1.1489,0.2331,0.1844,-4.77,-1.3,5.67,
87240,1661606220820,-1.1289,0.552,0.4344,-4.37,12.48,4.59,
87241,1661606220820,-0.9653,0.6277,0.4837,1.93,12.91,0.3,
87242,1661606220820,-1.0684,0.5373,-0.0232,3.64,14.68,5.77,
87243,1661606220820,-1.0493,0.7981,0.1795,6.72,19.26,7.6,
87244,1661606220820,-1.0674,0.9182,-0.0119,10.13,13.41,0.85,
87245,1661606220820,-0.978,0.8918,0.0335,11.53,16.8,2.39,
87246,1661606220820,-1.1025,0.8244,0.2054,16.32,10.79,0.67,
87247,1661606220820,-0.9321,0.8464,-0.0109,18.23,18.33,-0.89,
87248,1661606220820,-0.8848,1.0031,0.0887,18.63,17.9,-2.61,
87249,1661606220820,-0.9468,0.903,0.1082,20.01,26.78,-5.91,
87250,1661606220820,-0.8672,0.8645,-0.113,24.32,19.33,-7.63,
87251,1661606220820,-0.9072,0.9157,-0.0852,30.02,24.32,-5.36,
87252,1661606220820,-0.9292,0.8352,-0.1506,34.02,12.24,-6.72,
87253,1661606220820,-0.9522,0.6115,-0.3361,34.91,16.46,-10.01,
87254,1661606220820,-0.8047,0.635,-0.2209,33.52,9.45,-8.18,
87255,1661606220820,-0.8867,0.5964,-0.3928,37.71,-1.89,-12.38,
87256,1661606220820,-0.7891,0.383,-0.2893,38.31,-9.77,-9.28,
87257,1661606220820,-0.9302,0.2238,0.0618,36.51,0.31,-9.1,
87258,1661606220820,-0.981,0.3513,-0.0349,36.71,-3.33,-5.91,
87259,1661606220820,-0.6382,0.4162,-0.4065,39.21,-6.45,-10.82,
87260,1661606220820,-0.8032,0.3108,0.1404,43.01,1.24,-5.91,
87261,1661606220820,-0.8037,0.2536,-0.2717,41.12,-4.42,-10.45,
87262,1661606220820,-0.7739,0.114,-0.5622,38.31,2.76,-5.45,
87263,1661606220820,-0.833,0.2522,0.1307,37.91,4.46,-12.38,
87264,1661606220820,-0.8408,0.0085,-0.5173,40.9,-16.69,-7.81,
87265,1661606220820,-0.7417,-0.1018,-0.7736,42.61,-22.28,-9.92,
87266,1661606220820,-0.7974,-0.0481,-0.2194,35.72,-5.62,-7.72,
87267,1661606220836,-0.8193,-0.1297,-0.2126,33.82,-12.13,-4.44,
87268,1661606220836,-0.876,-0.2019,-0.4206,32.01,-10.94,-6.53,
87269,1661606220836,-0.8965,-0.283,0.1067,30.82,-7.55,-10.55,
87270,1661606220836,-0.9395,-0.3972,-0.0764,27.72,-13.23,-13.66,
87271,1661606220836,-1.001,-0.3455,-0.0681,29.21,-5.28,-9.19,
87272,1661606220836,-1.0112,-0.5105,0.1346,26.42,-6.97,-15.29,
87273,1661606220836,-0.9482,-0.5408,-0.2566,21.52,-15.85,-12.65,
87274,1661606220836,-1.0503,-0.7337,-0.1477,18.52,-12.04,-7.72,
87275,1661606220836,-1.0591,-0.7972,0.0823,17.44,-19.23,-9.1,
87276,1661606220836,-1.0039,-0.7713,-0.0466,10.52,-21.94,-8.0,
87277,1661606220836,-1.0586,-0.8855,0.0325,6.51,-22.54,0.03,
87278,1661606220836,-0.9497,-0.8191,0.2493,3.43,-13.56,-1.25,
87279,1661606220836,-1.1787,-0.8294,0.2942,2.22,-15.76,-0.25,
87280,1661606220836,-1.145,-0.7405,0.0921,0.31,-17.79,2.39,
87281,1661606220836,-1.2349,-0.5818,0.4563,-4.28,-13.56,7.23,
87282,1661606220836,-1.294,-0.573,0.7268,-3.59,-7.39,9.23,
87283,1661606220836,-1.1519,-0.4363,-0.0847,-6.17,-18.39,7.14,
87284,1661606220844,-1.1343,-0.2386,0.5843,-2.77,1.24,3.58,
87285,1661606220844,-1.2334,-0.2742,0.1673,-2.26,-7.64,10.24,
87286,1661606220844,-1.1758,-0.3113,-0.1311,-0.57,1.4,11.52,
87287,1661606220844,-1.2593,-0.0345,0.5569,-6.55,6.23,13.43,
87288,1661606220844,-1.2793,-0.0032,0.4666,-8.66,1.24,5.49,
87289,1661606220844,-1.1445,-0.0076,0.0516,-8.05,-2.15,2.94,
87290,1661606220844,-1.2358,0.3156,0.7098,-4.67,8.68,5.95,
87291,1661606220844,-1.1265,0.3376,0.6224,-2.97,4.62,5.31,
87292,1661606220844,-1.1445,0.3093,0.2195,-1.47,12.74,7.41,
87293,1661606220844,-1.0996,0.4104,0.5398,-1.07,20.69,1.39,
87294,1661606220844,-1.0752,0.4709,0.2508,0.13,20.1,1.22,
87295,1661606220844,-0.9971,0.51,0.1536,1.44,16.54,4.13,
87296,1661606220844,-1.0679,0.5246,0.2732,2.73,16.21,-3.62,
87297,1661606220844,-1.0825,0.5085,0.1209,7.23,12.65,3.95,
87298,1661606220844,-1.0249,0.5031,-0.0149,10.22,7.25,4.87,
87299,1661606220844,-1.0005,0.5691,0.2181,11.82,17.47,3.68,
87300,1661606220844,-1.1211,0.6115,0.1634,11.03,9.28,6.04,
87301,1661606220844,-0.8574,0.6154,-0.0734,11.55,10.88,1.84,
87302,1661606220844,-0.9497,0.759,0.3118,13.53,7.42,3.86,
87303,1661606220844,-0.833,0.7556,-0.0783,18.43,4.1,-2.26,
87304,1661606220844,-0.8711,0.6897,-0.1643,22.71,9.19,-0.79,
87305,1661606220844,-1.0181,0.8596,0.1399,25.61,24.08,1.22,
87306,1661606220844,-0.874,0.945,-0.1228,27.03,15.61,2.94,
87307,1661606220844,-0.8745,0.924,-0.1716,25.32,17.56,1.94,
87308,1661606220844,-0.8574,0.8054,-0.2185,30.01,7.58,-2.53,
87309,1661606220844,-0.8106,0.7385,-0.382,35.21,0.98,0.76,
87310,1661606220844,-0.7905,0.9089,-0.281,36.62,-0.96,-7.26,
87311,1661606220844,-0.8565,0.8278,-0.2028,38.61,3.69,-10.38,
87312,1661606220844,-0.8057,0.5617,-0.3884,36.49,-0.88,-10.64,
87313,1661606220844,-0.833,0.8259,0.011,37.91,3.01,-12.56,
87314,1661606220844,-0.8403,0.6301,-0.2194,42.41,-3.16,-9.83,
87315,1661606220844,-0.7588,0.3996,-0.3547,43.41,3.94,-14.47,
87316,1661606220844,-0.7666,0.3777,-0.1755,43.12,8.68,-11.46,
87317,1661606220844,-0.8482,0.1799,-0.2453,42.9,-1.39,-17.4,
87318,1661606220844,-0.7705,0.1296,-0.5515,42.11,-12.13,-14.83,
87319,1661606220860,-0.8281,-0.261,-0.2229,41.61,-2.06,-13.93,
87320,1661606220860,-0.8706,-0.3611,-0.5515,38.02,-14.07,-14.56,
87321,1661606220860,-0.7407,-0.4573,-0.5315,35.91,-16.69,-13.2,
87322,1661606220860,-0.9443,-0.6931,0.0052,33.72,-19.91,-4.9,
87323,1661606220860,-0.7813,-0.4524,-0.3776,29.34,-20.42,-2.61,
87324,1661606220860,-1.0308,-0.7088,0.0779,24.71,-18.98,-7.08,
87325,1661606220863,-0.9995,-0.7244,0.3055,21.31,-19.58,-8.09,
87326,1661606220863,-1.0088,-0.6751,-0.1369,21.81,-18.65,-3.25,
87327,1661606220863,-0.9639,-0.6116,0.1648,20.82,-5.36,-0.89,
87328,1661606220863,-1.0278,-0.533,-0.092,17.31,-12.37,-4.44,
87329,1661606220863,-1.0171,-0.6687,-0.0983,15.73,-16.86,-3.89,
87330,1661606220863,-1.1323,-0.4666,0.0852,10.92,-24.14,-2.89,
87331,1661606220863,-1.0278,-0.4637,0.1121,9.35,-15.5,1.48,
87332,1661606220863,-1.0259,-0.5838,0.0491,5.53,-13.06,-2.17,
87333,1661606220863,-1.0674,-0.5091,0.1018,4.83,-8.83,-3.43,
87334,1661606220863,-1.0825,-0.3372,0.1502,1.43,-13.14,-1.71,
87335,1661606220863,-1.1279,-0.3494,0.4075,-0.16,-4.01,-0.79,
87336,1661606220863,-1.2407,-0.4016,0.3704,2.13,-4.01,1.3,
87337,1661606220863,-1.1851,-0.427,0.2972,-1.07,1.4,-2.61,
87338,1661606220863,-1.1426,-0.3728,0.3763,-4.67,3.86,-1.07,
87339,1661606220863,-1.1812,-0.3401,0.2493,-3.96,0.14,-3.34,
87340,1661606220863,-1.165,-0.427,0.2171,-3.38,-0.7,-3.07,
87341,1661606220863,-1.2998,-0.3855,0.3728,-4.87,-2.82,4.04,
87342,1661606220863,-1.2427,-0.3323,0.2781,-5.97,-7.48,0.58,
87343,1661606220863,-1.1851,-0.3509,0.3758,-9.37,-2.15,2.67,
87344,1661606220863,-1.3599,-0.2596,0.5144,-11.47,-0.96,3.86,
87345,1661606220863,-1.0391,-0.0281,0.2928,-9.77,-1.46,6.5,
87346,1661606220863,-1.3579,0.1687,0.6443,-10.27,1.33,5.95,
87347,1661606220863,-1.1958,0.2082,0.5701,-5.97,4.1,6.59,
87348,1661606220863,-1.1206,0.2629,0.2268,-2.95,-3.42,7.05,
87349,1661606220875,-1.1475,0.4787,0.3977,-0.95,13.58,6.04,
87350,1661606220875,-1.0562,0.7473,0.3138,5.43,9.35,8.97,
87351,1661606220875,-1.0298,0.6028,0.0813,4.33,23.56,7.6,
87352,1661606220875,-1.0386,0.8083,0.2381,2.13,22.29,2.58,
87353,1661606220875,-1.0855,0.9348,-0.0358,1.93,13.24,3.31,
87354,1661606220875,-0.9883,0.8689,0.0999,10.52,13.75,-0.61,
87355,1661606220875,-1.1226,0.9387,0.2986,19.72,14.51,0.76,
87356,1661606220875,-0.9121,0.9724,-0.0857,22.21,18.91,-4.26,
87357,1661606220875,-0.8633,1.0515,-0.0349,16.82,24.83,-7.17,
87358,1661606220875,-0.9116,0.9387,0.2439,20.43,28.72,-6.0,
87359,1661606220875,-0.9102,0.7649,-0.2712,24.91,18.74,-9.55,
87360,1661606220875,-0.8794,0.903,-0.1428,30.42,22.8,-9.37,
87361,1661606220875,-0.9443,0.6941,-0.1272,32.53,13.17,-9.28,
87362,1661606220875,-0.9131,0.469,-0.4348,31.92,11.81,-10.29,
87363,1661606220875,-0.8296,0.5803,-0.2287,29.81,9.45,-9.37,
87364,1661606220875,-0.8823,0.614,-0.1433,33.32,0.31,-7.17,
87365,1661606220875,-0.8355,0.4236,-0.4089,35.61,-9.08,-8.45,
87366,1661606220875,-0.8496,0.197,-0.1057,35.61,-1.3,-9.83,
87367,1661606220875,-0.8726,0.4602,-0.0427,34.62,-2.82,-7.08,
87368,1661606220875,-0.6621,0.3274,-0.363,33.32,-3.25,-12.65,
87369,1661606220875,-0.8892,0.2951,0.0755,42.81,3.77,-3.07,
87370,1661606220875,-0.751,0.2727,-0.4914,41.8,-3.33,-11.83,
87371,1661606220875,-0.7583,0.218,-0.6677,36.33,-10.1,-6.27,
87372,1661606220875,-0.8364,0.2517,-0.0422,40.51,-3.84,-10.38,
87373,1661606220875,-0.8731,0.0735,-0.3088,41.21,-16.36,-7.08,
87374,1661606220875,-0.7427,0.0002,-0.6818,34.31,-15.17,-10.19,
87375,1661606220875,-0.8027,0.0569,-0.009,32.62,-12.8,-5.08,
87376,1661606220875,-0.8145,-0.2107,-0.3552,34.81,-15.76,-6.62,
87377,1661606220875,-0.8716,-0.2024,-0.1325,29.92,-4.85,-16.76,
87378,1661606220875,-0.915,-0.3147,0.0745,27.52,-6.97,-14.92,
87379,1661606220875,-0.8789,-0.4314,-0.1779,28.01,-10.44,-13.29,
87380,1661606220875,-1.0269,-0.4886,0.0413,27.11,-7.14,-12.83,
87381,1661606220875,-0.9722,-0.6189,-0.0944,23.11,-8.58,-10.64,
87382,1661606220875,-0.9487,-0.6814,-0.2619,16.21,-10.7,-9.74,
87383,1661606220875,-1.0855,-0.8328,-0.0476,18.32,-14.07,-5.45,
87384,1661606220875,-0.978,-0.8484,-0.1189,12.63,-23.04,-2.44,
87385,1661606220891,-1.0728,-0.8831,0.096,5.32,-21.01,0.4,
87386,1661606220891,-1.1387,-0.9353,0.1692,3.32,-20.08,4.59,
87387,1661606220891,-0.9795,-0.7981,0.1473,1.52,-17.55,5.31,
87388,1661606220891,-1.2324,-0.7918,0.3807,0.22,-15.59,3.4,
87389,1661606220891,-1.0645,-0.6888,0.2469,-3.38,-18.72,4.68,
87390,1661606220891,-1.2793,-0.5721,0.5179,-4.37,-12.13,6.77,
87391,1661606220891,-1.1821,-0.5301,0.6609,-3.97,0.31,6.87,
87392,1661606220891,-1.1665,-0.4329,0.1634,-4.17,-13.31,4.23,
87393,1661606220891,-1.0742,-0.3138,0.199,-3.79,1.66,3.86,
87394,1661606220891,-1.2183,-0.3011,0.45,-3.27,-4.68,6.32,
87395,1661606220891,-1.0811,-0.2298,0.1033,-5.38,1.57,7.23,
87396,1661606220891,-1.1968,-0.0247,0.472,-6.77,2.26,8.7,
87397,1661606220891,-1.2886,0.0232,0.4534,-9.07,0.31,4.59,
87398,1661606220891,-1.1943,-0.0388,0.241,-6.96,-3.16,-2.53,
87399,1661606220891,-1.2451,0.1775,0.5887,-6.66,9.35,2.58,
87400,1661606220891,-1.1636,0.3606,0.4017,-5.36,7.32,1.84,
87401,1661606220891,-1.1172,0.3293,0.3558,-4.48,15.78,4.96,
87402,1661606220891,-1.1353,0.3567,0.4808,-5.58,20.02,3.49,
87403,1661606220891,-1.1211,0.4284,0.304,-3.26,24.83,1.57,
87404,1661606220891,-1.1011,0.4958,0.1863,1.32,18.07,7.96,
87405,1661606220891,-1.2217,0.4631,0.3089,4.13,14.18,1.39,
87406,1661606220891,-1.2236,0.4758,0.3147,5.82,12.41,0.58,
87407,1661606220891,-1.0366,0.4983,-0.0686,6.04,8.93,4.77,
87408,1661606220891,-0.999,0.6111,0.1643,8.72,15.78,-2.79,
87409,1661606220891,-1.1226,0.6477,0.1399,9.93,12.99,-1.8,
87410,1661606220891,-0.8911,0.6042,-0.0129,15.92,8.42,2.03,
87411,1661606220891,-1.0503,0.7043,0.2215,11.82,7.16,-3.62,
87412,1661606220903,-0.9556,0.8103,0.1585,15.53,9.78,2.03,
87413,1661606220903,-0.8716,0.698,-0.1081,21.92,9.52,4.68,
87414,1661606220903,-0.999,0.8352,-0.0022,27.92,28.98,3.58,
87415,1661606220903,-0.8814,0.948,0.0042,27.52,20.36,5.86,
87416,1661606220903,-0.8115,0.8571,-0.3195,26.62,21.36,-2.35,
87417,1661606220903,-0.8193,0.8327,-0.1779,27.32,8.18,2.49,
87418,1661606220903,-0.7124,0.7292,-0.2653,35.12,2.17,-2.35,
87419,1661606220903,-0.7319,0.8689,-0.3166,35.41,-1.63,-2.7,
87420,1661606220903,-0.8106,0.9431,-0.3278,38.11,7.07,-6.36,
87421,1661606220903,-0.8115,0.5427,-0.3093,34.11,2.33,-7.72,
87422,1661606220903,-0.8066,0.757,-0.1584,34.22,6.82,-10.91,
87423,1661606220903,-0.8032,0.6579,-0.1496,41.32,-0.29,-10.73,
87424,1661606220903,-0.7935,0.3713,-0.3508,44.11,-2.15,-12.1,
87425,1661606220903,-0.7813,0.2507,-0.0754,40.31,6.73,-10.1,
87426,1661606220903,-0.8521,0.1242,-0.3723,37.32,3.17,-12.1,
87427,1661606220903,-0.7954,0.112,-0.51,40.11,-6.62,-10.73,
87428,1661606220903,-0.812,-0.1902,-0.383,42.63,-9.58,-8.18,
87429,1661606220903,-0.9492,-0.4192,-0.3718,36.71,-16.43,-7.36,
87430,1661606220903,-0.8232,-0.3914,-0.5642,33.91,-14.24,-12.47,
87431,1661606220903,-0.8789,-0.5901,-0.111,30.12,-23.97,-6.81,
87432,1661606220903,-0.7427,-0.4461,-0.3064,25.22,-24.4,-10.38,
87433,1661606220903,-0.9243,-0.5979,-0.196,24.53,-16.69,-3.53,
87434,1661606220903,-1.0132,-0.7674,0.2434,25.02,-13.99,-4.72,
87435,1661606220903,-1.0098,-0.6697,0.0086,25.32,-20.51,-5.82,
87436,1661606220903,-1.0234,-0.6302,0.0208,19.62,-10.7,-1.8,
87437,1661606220903,-1.0352,-0.5862,-0.0007,13.22,-10.77,-1.62,
87438,1661606220903,-0.9854,-0.6858,-0.0173,11.73,-13.4,-0.89,
87439,1661606220903,-1.0679,-0.5681,-0.0232,14.12,-17.62,-4.26,
87440,1661606220903,-0.9951,-0.532,0.011,7.52,-15.33,0.49,
87441,1661606220903,-1.0801,-0.593,0.2249,2.04,-19.23,-1.44,
87442,1661606220903,-1.1113,-0.51,0.1585,3.12,-16.86,-3.62,
87443,1661606220903,-1.0986,-0.3719,0.0735,2.63,-13.31,-4.17,
87444,1661606220903,-1.1108,-0.3733,0.4202,0.42,0.14,-2.53,
87445,1661606220903,-1.2412,-0.4334,0.3289,-1.38,-1.89,-1.99,
87446,1661606220920,-1.1753,-0.3958,0.2889,-2.17,0.14,-1.25,
87447,1661606220920,-1.1777,-0.3865,0.4075,-5.45,-0.96,-6.36,
87448,1661606220920,-1.2139,-0.4041,0.2825,-7.56,-5.95,0.67,
87449,1661606220920,-1.1948,-0.4344,0.2107,-5.47,-0.37,0.58,
87450,1661606220920,-1.2827,-0.3601,0.5481,-8.76,4.46,4.68,
87451,1661606220920,-1.2417,-0.2918,0.1512,-9.36,-4.52,7.41,
87452,1661606220920,-1.2256,-0.2581,0.4661,-8.87,-2.75,6.13,
87453,1661606220920,-1.3467,-0.1057,0.679,-9.97,0.05,6.68,
87454,1661606220920,-1.1626,-0.0388,0.4036,-9.97,-0.53,9.23,
87455,1661606220920,-1.3525,0.0808,0.3308,-10.76,5.22,11.06,
87456,1661606220920,-1.1719,0.2434,0.7918,-8.57,14.51,6.22,
87457,1661606220920,-1.1265,0.2673,0.0227,-3.38,-0.37,5.86,
87458,1661606220920,-1.104,0.5339,0.3118,0.62,19.76,10.69,
87459,1661606220920,-1.0298,0.6325,0.3514,3.32,13.08,5.77,
87460,1661606220920,-1.0488,0.5661,0.1531,0.42,25.42,6.5,
87461,1661606220920,-1.085,0.8049,0.2264,2.22,19.09,6.04,
87462,1661606220920,-1.0835,0.8484,-0.0568,2.24,12.24,2.3,
87463,1661606220920,-0.9136,0.9001,0.0623,4.22,15.53,1.04,
87464,1661606220920,-1.1636,0.9021,0.4734,12.63,15.53,1.57,
87465,1661606220920,-0.9595,0.9294,-0.1286,15.92,14.18,0.49,
87466,1661606220920,-0.8926,1.0905,0.2068,18.63,23.32,-1.25,
87467,1661606220920,-0.9346,1.0608,0.4358,21.02,27.71,-6.09,
87468,1661606220920,-1.0044,0.7917,-0.2087,22.82,16.3,-4.44,
87469,1661606220920,-0.9009,0.8249,-0.1677,24.82,19.84,-10.64,
87470,1661606220920,-0.9439,0.7903,0.0169,28.31,11.72,-5.45,
87471,1661606220920,-0.9316,0.5534,-0.49,31.61,4.53,-8.55,
87472,1661606220920,-0.8091,0.4958,-0.2551,31.52,8.09,-1.25,
87473,1661606220920,-0.8413,0.5681,-0.0285,31.21,7.25,-8.73,
87474,1661606220920,-0.875,0.5442,-0.3664,34.62,-5.62,-5.08,
87475,1661606220920,-0.8052,0.2341,-0.2546,36.01,-2.06,-4.53,
87476,1661606220920,-0.9033,0.4299,0.0999,34.01,-0.37,-1.53,
87477,1661606220920,-0.6665,0.3845,-0.469,36.42,-3.75,-5.91,
87478,1661606220920,-0.8989,0.2683,-0.0422,36.81,2.76,-6.9,
87479,1661606220920,-0.7515,0.2282,-0.2307,37.41,-2.82,-7.08,
87480,1661606220920,-0.7573,0.1902,-0.6677,37.12,-7.74,-5.27,
87481,1661606220920,-0.7964,0.2297,-0.3444,37.81,10.21,-4.81,
87482,1661606220920,-0.8711,0.0666,-0.1858,39.71,-6.71,-3.89,
87483,1661606220936,-0.7017,-0.0887,-0.8474,34.91,-13.31,-3.34,
87484,1661606220936,-0.834,0.0881,-0.1345,33.72,-14.59,-8.09,
87485,1661606220936,-0.8892,-0.2425,-0.323,34.81,-18.72,-5.72,
87486,1661606220936,-0.8643,-0.241,-0.2268,30.12,-9.58,-10.82,
87487,1661606220936,-0.8999,-0.2478,0.0906,25.13,-8.07,-8.0,
87488,1661606220936,-0.877,-0.4187,-0.1462,25.11,-14.66,-12.83,
87489,1661606220936,-1.0068,-0.451,0.0813,31.72,-9.17,-14.92,
87490,1661606220936,-0.9966,-0.6092,-0.0671,24.21,-7.74,-12.38,
87491,1661606220936,-0.9834,-0.6892,-0.279,16.21,-12.04,-11.0,
87492,1661606220936,-1.0962,-0.8972,0.0691,17.11,-15.5,-3.71,
87493,1661606220936,-1.0962,-0.949,-0.0173,11.93,-25.5,-3.62,
87494,1661606220936,-0.8823,-0.8333,-0.2717,4.53,-18.55,-4.99,
87495,1661606220936,-1.1196,-0.9593,0.159,3.63,-21.26,-2.08,
87496,1661606220936,-1.0117,-0.8055,0.1282,-0.36,-22.54,-1.71,
87497,1661606220936,-1.188,-0.72,0.2513,-1.58,-15.93,0.49,
87498,1661606220936,-1.1499,-0.7205,0.365,-4.06,-16.62,0.94,
87499,1661606220936,-1.2471,-0.5974,0.3045,-5.27,-15.93,4.59,
87500,1661606220936,-1.2271,-0.4412,0.7547,-4.77,0.21,4.23,
87501,1661606220936,-1.1733,-0.408,0.3724,-6.17,-11.11,3.22,
87502,1661606220936,-1.0674,-0.3548,-0.0188,-6.48,3.94,-0.52,
87503,1661606220936,-1.2734,-0.3059,0.7239,-7.67,0.05,5.05,
87504,1661606220936,-1.188,-0.1326,0.1097,-8.96,-7.05,3.86,
87505,1661606220936,-1.1816,0.0246,0.2439,-11.66,-4.35,2.85,
87506,1661606220936,-1.2769,0.0534,0.659,-7.77,7.07,8.97,
87507,1661606220936,-1.2056,-0.0071,0.4036,-6.96,2.33,6.87,
87508,1661606220936,-1.1943,0.1428,0.3455,-5.77,13.58,4.68,
87509,1661606220936,-1.1362,0.3547,0.6097,-7.07,10.21,1.75,
87510,1661606220936,-1.0894,0.3215,0.2517,-6.28,11.81,1.66,
87511,1661606220936,-1.0845,0.3493,0.4568,-5.87,16.21,6.22,
87512,1661606220936,-1.1572,0.3967,0.4178,-4.87,16.54,-2.7,
87513,1661606220936,-1.0635,0.4528,0.0691,1.95,13.08,1.66,
87514,1661606220936,-1.1211,0.4499,0.2679,3.12,17.14,0.58,
87515,1661606220936,-1.1631,0.49,0.2786,3.41,16.8,5.49,
87516,1661606220936,-1.0791,0.4738,-0.0686,4.22,8.26,2.67,
87517,1661606220936,-0.9727,0.5725,0.054,4.22,14.68,4.5,
87518,1661606220951,-1.1914,0.6711,0.3841,8.72,12.99,2.67,
87519,1661606220951,-0.9805,0.6403,0.0638,12.22,6.39,3.49,
87520,1661606220951,-1.0518,0.6364,-0.0012,10.83,6.99,1.84,
87521,1661606220953,-1.1069,0.8459,0.4163,14.63,12.31,2.3,
87522,1661606220953,-0.8906,0.7624,-0.175,21.72,7.58,2.21,
87523,1661606220953,-0.8657,0.8972,0.1517,25.52,25.76,1.66,
87524,1661606220953,-0.9087,0.9182,0.2483,25.52,24.25,5.14,
87525,1661606220953,-0.7739,0.8244,-0.2727,24.62,17.47,1.48,
87526,1661606220953,-0.7847,0.8791,-0.2365,25.13,5.89,1.75,
87527,1661606220953,-0.769,0.8166,-0.2434,31.02,4.2,-4.44,
87528,1661606220953,-0.7554,0.9294,-0.3557,33.52,2.84,-5.08,
87529,1661606220953,-0.8501,0.9792,-0.3049,33.72,6.9,-4.72,
87530,1661606220953,-0.8296,0.6428,-0.2517,32.82,5.55,-6.53,
87531,1661606220953,-0.7085,0.675,-0.3166,36.13,8.42,-5.82,
87532,1661606220953,-0.7368,0.6589,-0.1311,41.21,5.63,-9.64,
87533,1661606220953,-0.8076,0.3674,-0.3786,40.81,-3.42,-9.46,
87534,1661606220953,-0.77,0.2522,-0.2053,37.41,-4.09,-13.75,
87535,1661606220953,-0.8403,0.1272,-0.1721,42.51,7.66,-13.93,
87536,1661606220953,-0.8565,0.0285,-0.4587,42.02,2.93,-15.02,
87537,1661606220953,-0.7832,-0.1751,-0.465,36.72,-5.36,-13.75,
87538,1661606220953,-0.9409,-0.429,-0.2692,31.72,-20.32,-15.2,
87539,1661606220953,-0.8784,-0.3836,-0.59,35.43,-26.17,-5.45,
87540,1661606220953,-0.8682,-0.6018,-0.1848,31.72,-10.1,-10.1,
87541,1661606220953,-0.856,-0.4949,-0.0632,24.21,-21.61,-9.37,
87542,1661606220953,-0.898,-0.5193,-0.2575,22.53,-29.97,-3.89,
87543,1661606220953,-1.0361,-0.74,0.1849,26.71,-11.87,-3.8,
87544,1661606220953,-0.9893,-0.6316,0.1541,20.72,-10.51,-1.71,
87545,1661606220953,-0.9678,-0.5916,-0.2107,16.44,-15.0,-6.36,
87546,1661606220953,-0.9673,-0.532,-0.0632,14.32,-19.15,-3.89,
87547,1661606220953,-0.979,-0.6443,0.1038,12.02,-14.5,-3.71,
87548,1661606220953,-1.0405,-0.5672,-0.0398,12.54,-12.13,-0.15,
87549,1661606220953,-0.9565,-0.5091,-0.0129,7.94,-16.1,-2.44,
87550,1661606220953,-1.0386,-0.5774,0.2996,6.02,-17.79,-2.35,
87551,1661606220953,-1.1118,-0.4944,0.2298,0.62,-18.3,-3.89,
87552,1661606220953,-1.082,-0.4129,0.0237,0.62,-7.81,-2.98,
87553,1661606220953,-1.0898,-0.3767,0.41,0.64,3.86,-4.08,
87554,1661606220953,-1.2183,-0.4641,0.2767,0.13,-2.06,-2.61,
87555,1661606220969,-1.1343,-0.4856,0.0965,1.32,-1.05,2.67,
87556,1661606220969,-1.1729,-0.4671,0.2864,-3.07,2.76,2.49,
87557,1661606220969,-1.2148,-0.513,0.2625,-6.06,-3.59,2.21,
87558,1661606220969,-1.2354,-0.4768,0.0574,-10.37,-8.32,1.84,
87559,1661606220969,-1.2017,-0.3592,0.574,-12.96,-3.42,2.21,
87560,1661606220969,-1.2822,-0.3816,0.2478,-8.96,-8.74,6.59,
87561,1661606220969,-1.1523,-0.3196,0.3787,-10.75,-6.29,6.77,
87562,1661606220969,-1.3482,-0.2415,0.7732,-12.27,1.07,11.24,
87563,1661606220969,-1.2798,-0.0515,0.6639,-14.87,3.94,10.24,
87564,1661606220969,-1.2764,0.0886,0.1263,-11.66,2.43,15.26,
87565,1661606220969,-1.1763,0.2995,0.9158,-11.66,24.32,8.7,
87566,1661606220969,-1.1357,0.3542,0.0677,-8.76,-5.62,8.6,
87567,1661606220969,-1.1196,0.5446,0.0188,-6.06,9.95,11.52,
87568,1661606220975,-1.0376,0.677,0.4148,0.13,8.35,9.23,
87569,1661606220975,-1.0962,0.6696,0.1687,1.44,15.53,7.78,
87570,1661606220975,-1.0239,0.8694,0.0359,3.75,17.56,4.23,
87571,1661606220975,-1.0781,0.9577,0.0164,5.43,21.12,2.3,
87572,1661606220975,-0.9019,0.9109,0.1712,6.53,27.62,-3.8,
87573,1661606220975,-1.0801,0.8152,0.4236,11.13,22.89,-4.08,
87574,1661606220975,-0.9087,0.9182,0.0472,11.03,20.86,-1.8,
87575,1661606220978,-0.8574,1.0061,0.0779,15.12,16.71,-5.27,
87576,1661606220978,-0.9063,0.9045,0.2405,21.22,27.37,-6.72,
87577,1661606220978,-1.0366,0.7746,-0.0437,24.71,20.86,-5.91,
87578,1661606220978,-0.9014,0.7229,-0.3191,24.12,26.02,-9.92,
87579,1661606220978,-0.8682,0.7317,-0.1115,26.01,14.85,-6.53,
87580,1661606220978,-0.9424,0.5569,-0.4167,30.22,4.87,-7.91,
87581,1661606220978,-0.7944,0.51,-0.4504,28.51,-4.52,-4.72,
87582,1661606220978,-0.9033,0.5647,-0.0402,27.22,-0.7,-6.0,
87583,1661606220978,-0.9048,0.4524,-0.2541,33.41,-6.45,-3.98,
87584,1661606220978,-0.8462,0.3186,-0.1975,35.21,-3.08,-6.36,
87585,1661606220978,-0.959,0.3376,0.1194,33.01,-0.12,-4.08,
87586,1661606220978,-0.7026,0.4455,-0.2985,33.41,-2.23,-8.0,
87587,1661606220978,-0.8057,0.3537,-0.091,35.91,10.62,-6.09,
87588,1661606220978,-0.8106,0.2722,-0.1296,34.31,3.27,-9.74,
87589,1661606220978,-0.6992,0.1653,-0.8151,33.81,-15.43,-4.81,
87590,1661606220978,-0.7861,0.3122,-0.0315,38.22,-2.82,-8.45,
87591,1661606220978,-0.9185,0.155,-0.0598,43.51,-7.14,-8.36,
87592,1661606220978,-0.6929,-0.1263,-0.9919,35.41,-11.44,-6.81,
87593,1661606220978,-0.7393,0.155,-0.1818,26.62,-10.6,-12.47,
87594,1661606220978,-0.9356,-0.1619,-0.0993,32.22,-21.35,-11.37,
87595,1661606220978,-0.8731,-0.2972,-0.3855,32.11,-7.55,-9.1,
87596,1661606220978,-0.9336,-0.1609,0.2552,25.11,2.5,-10.45,
87597,1661606220978,-0.9526,-0.3738,-0.1032,25.11,-7.39,-11.09,
87598,1661606220978,-0.9712,-0.5169,-0.1237,26.51,-7.64,-13.11,
87599,1661606220978,-0.9868,-0.6468,0.0887,24.32,-4.94,-12.38,
87600,1661606220978,-0.9678,-0.5916,-0.4787,15.92,-15.26,-12.01,
87601,1661606220978,-1.0327,-0.9012,0.0008,13.64,-18.65,-5.45,
87602,1661606220978,-1.0669,-0.9187,-0.0305,9.12,-22.7,-6.09,
87603,1661606220978,-0.9033,-0.7693,-0.2722,6.13,-20.58,-3.43,
87604,1661606220978,-1.0747,-0.8494,0.0525,2.63,-17.29,0.4,
87605,1661606220978,-1.1118,-0.8387,0.3484,0.13,-19.91,-0.61,
87606,1661606220978,-1.1113,-0.636,0.1326,-2.37,-22.28,2.67,
87607,1661606220978,-1.2354,-0.6985,0.4729,-1.58,-9.77,4.13,
87608,1661606220978,-1.187,-0.6482,0.3479,-5.07,-13.06,2.67,
87609,1661606220994,-1.2051,-0.4671,0.5242,-6.37,1.33,-0.25,
87610,1661606220994,-1.1709,-0.3172,-0.0139,-8.37,-10.1,5.05,
87611,1661606220994,-1.1191,-0.3455,-0.0778,-8.28,-1.05,5.31,
87612,1661606220994,-1.2549,-0.2776,0.6883,-7.97,-2.56,8.88,
87613,1661606220994,-1.3057,-0.0896,0.1204,-8.28,-5.28,3.95,
87614,1661606220994,-1.1777,-0.0266,0.0813,-12.46,-5.02,3.86,
87615,1661606220994,-1.353,0.0237,0.8567,-13.07,10.62,4.5,
87616,1661606220994,-1.2524,0.0324,0.1946,-5.07,1.83,7.6,
87617,1661606220998,-1.1958,0.1042,0.1409,-6.48,16.3,4.77,
87618,1661606220998,-1.1314,0.3586,0.7703,-8.26,16.88,1.39,
87619,1661606220998,-1.1509,0.3137,0.2181,-9.97,15.61,4.32,
87620,1661606220998,-1.1289,0.2844,0.2908,-8.57,17.4,2.3,
87621,1661606220998,-1.1509,0.4074,0.4153,-5.16,17.73,2.67,
87622,1661606220998,-1.0855,0.4231,0.1219,-3.67,10.45,4.13,
87623,1661606220998,-1.0894,0.4172,0.0403,1.83,11.38,5.77,
87624,1661606220998,-1.2358,0.4509,0.4695,0.62,14.27,5.58,
87625,1661606220998,-1.0073,0.4382,-0.0979,1.03,8.35,2.94,
87626,1661606220998,-0.9981,0.4821,-0.0617,1.73,16.04,3.22,
87627,1661606220998,-1.1782,0.6452,0.5491,6.42,18.74,0.94,
87628,1661606220998,-0.7627,0.6516,-0.0637,10.83,7.83,0.3,
87629,1661606220998,-0.7158,0.779,0.0911,12.83,5.22,4.96,
87630,1661606220998,-1.1948,0.8596,0.3558,12.72,14.94,4.96,
87631,1661606220998,-0.9356,0.7473,-0.1179,18.12,15.2,3.22,
87632,1661606220998,-0.8755,0.8449,-0.1921,18.82,29.24,1.57,
87633,1661606220998,-0.9087,0.9621,-0.0769,18.43,26.52,1.22,
87634,1661606220998,-0.7847,0.8059,-0.4201,20.72,8.42,-1.07,
87635,1661606220998,-0.8555,0.8698,-0.2692,23.22,0.31,-0.98,
87636,1661606220998,-0.8667,0.8874,-0.2058,29.21,-1.98,-1.07,
87637,1661606220998,-0.7324,0.8669,-0.3317,30.91,6.32,-5.91,
87638,1661606220998,-0.8452,0.8899,-0.0774,34.22,16.3,-4.08,
87639,1661606220998,-0.8423,0.614,-0.2497,34.91,13.67,-5.17,
87640,1661606220998,-0.7847,0.7312,-0.2824,35.12,8.68,-10.64,
87641,1661606220998,-0.7647,0.6936,-0.0808,36.51,1.91,-9.28,
87642,1661606220998,-0.874,0.3879,-0.2419,37.41,-4.94,-11.37,
87643,1661606220998,-0.8262,0.2478,-0.3855,36.33,-0.12,-10.82,
87644,1661606220998,-0.8296,0.0656,-0.2365,36.22,8.26,-12.19,
87645,1661606220998,-0.7935,0.0012,-0.5432,37.12,-3.16,-14.83,
87646,1661606220998,-0.7764,-0.2952,-0.4406,34.51,-16.62,-13.2,
87647,1661606220998,-0.9619,-0.4265,-0.2649,32.31,-19.49,-10.38,
87648,1661606220998,-0.7964,-0.3997,-0.5803,31.93,-14.4,-9.19,
87649,1661606220998,-0.8657,-0.6067,-0.0022,29.11,-10.6,-6.81,
87650,1661606220998,-0.8467,-0.4373,-0.0647,25.52,-26.24,-7.91,
87651,1661606220998,-0.9585,-0.6126,-0.2912,23.81,-22.02,-0.25,
87652,1661606221014,-0.9473,-0.7327,0.3528,24.32,-5.78,-2.08,
87653,1661606221014,-0.9966,-0.6077,0.0262,19.42,-9.08,-1.99,
87654,1661606221014,-0.9107,-0.6009,-0.2946,15.31,-19.58,-3.89,
87655,1661606221014,-0.8984,-0.5545,-0.1306,17.31,-13.31,-3.8,
87656,1661606221014,-0.9487,-0.6389,0.1639,11.94,-10.51,-3.07,
87657,1661606221014,-1.0059,-0.5945,-0.2185,5.52,-18.98,-0.15,
87658,1661606221014,-0.9981,-0.4847,0.0008,7.82,-17.46,-2.53,
87659,1661606221014,-1.1187,-0.5579,0.3333,6.83,-17.79,-2.89,
87660,1661606221014,-1.0977,-0.4627,0.0047,4.33,-13.56,-4.35,
87661,1661606221014,-1.1035,-0.3513,0.2942,-4.57,-5.19,-5.54,
87662,1661606221014,-1.1157,-0.4544,0.429,-4.38,-2.06,-5.45,
87663,1661606221014,-1.1636,-0.4993,0.095,-0.07,-4.94,-4.44,
87664,1661606221014,-1.1685,-0.5164,0.1404,-1.38,0.56,-2.7,
87665,1661606221014,-1.2075,-0.5105,0.4617,-4.77,0.73,-3.43,
87666,1661606221014,-1.2398,-0.5594,0.1634,-12.47,-8.58,-2.53,
87667,1661606221014,-1.1826,-0.429,0.2571,-14.38,-8.67,1.75,
87668,1661606221014,-1.2949,-0.3655,0.6321,-14.47,-2.4,2.03,
87669,1661606221014,-1.2788,-0.4222,0.1639,-15.26,-4.78,5.58,
87670,1661606221014,-1.2363,-0.2591,0.5931,-15.37,-1.3,5.49,
87671,1661606221014,-1.3276,-0.1292,0.8655,-12.67,6.73,6.13,
87672,1661606221014,-1.0503,0.0061,0.3728,-11.97,0.47,4.96,
87673,1661606221014,-1.2393,0.1487,0.219,-14.87,8.85,5.58,
87674,1661606221014,-1.2056,0.3069,0.7757,-13.57,19.84,7.78,
87675,1661606221014,-1.0693,0.2795,-0.1877,-7.38,3.36,10.79,
87676,1661606221014,-1.0645,0.3996,-0.1228,-6.77,16.3,5.95,
87677,1661606221014,-1.0781,0.76,0.51,-2.26,14.77,8.24,
87678,1661606221014,-0.9917,0.6189,0.0652,-0.37,14.51,4.32,
87679,1661606221014,-1.0132,0.779,0.0862,-2.68,16.46,2.3,
87680,1661606221014,-0.9712,0.9128,0.2386,-0.68,14.1,3.49,
87681,1661606221014,-0.9414,0.8049,0.2513,4.42,13.75,3.95,
87682,1661606221028,-1.0649,0.8933,0.2854,6.92,16.21,2.85,
87683,1661606221028,-0.9663,0.9367,0.1155,8.22,19.93,-0.06,
87684,1661606221028,-0.8779,0.9631,-0.0285,14.52,23.56,0.85,
87685,1661606221028,-0.8745,0.9065,0.1092,18.92,29.07,-1.53,
87686,1661606221028,-0.9839,0.6794,-0.1618,19.31,23.39,-5.45,
87687,1661606221028,-0.9028,0.7859,-0.3181,21.22,14.27,-6.62,
87688,1661606221028,-0.8789,0.7199,-0.2541,23.81,10.96,-6.99,
87689,1661606221028,-0.9741,0.4778,-0.3039,26.3,2.0,-2.7,
87690,1661606221028,-0.7983,0.531,-0.3537,27.02,3.17,-3.71,
87691,1661606221028,-0.9097,0.57,0.0027,26.12,-1.98,-1.8,
87692,1661606221028,-0.8809,0.5427,-0.0217,29.41,-3.49,-4.72,
87693,1661606221028,-0.8057,0.301,-0.176,32.71,-3.59,-3.43,
87694,1661606221028,-0.8364,0.4528,-0.0661,33.01,3.77,-7.08,
87695,1661606221028,-0.6294,0.5227,-0.2092,33.61,3.77,-7.08,
87696,1661606221028,-0.958,0.3366,-0.0915,33.81,5.13,-13.75,
87697,1661606221028,-0.7676,0.2663,-0.6071,32.63,-6.21,-7.17,
87698,1661606221028,-0.7168,0.259,-0.737,34.31,-5.19,-9.19,
87699,1661606221028,-0.7676,0.3396,-0.0876,38.61,8.26,-7.36,
87700,1661606221028,-0.8272,-0.0061,-0.4997,35.52,-10.35,-11.19,
87701,1661606221028,-0.6582,0.0398,-0.6941,29.81,-15.33,-6.62,
87702,1661606221028,-0.8652,0.154,0.1238,31.72,-15.09,-9.55,
87703,1661606221028,-0.9058,-0.3699,-0.4929,33.61,-16.19,-4.53,
87704,1661606221028,-0.8242,-0.2278,-0.1252,27.72,-1.13,-2.17,
87705,1661606221028,-0.9751,-0.2097,0.284,22.71,-6.04,-4.9,
87706,1661606221028,-0.9507,-0.4925,-0.3899,26.12,-18.39,-6.99,
87707,1661606221028,-0.9976,-0.6302,0.199,22.52,-5.19,-11.0,
87708,1661606221028,-1.0337,-0.6131,-0.1858,18.82,-7.81,-10.19,
87709,1661606221028,-0.9556,-0.6131,-0.5378,17.42,-19.15,-11.46,
87710,1661606221028,-0.9815,-0.8977,0.0257,14.92,-16.62,-10.38,
87711,1661606221028,-1.1055,-1.0164,0.1267,7.43,-25.5,-5.91,
87712,1661606221028,-0.8901,-0.7674,-0.4577,4.02,-25.31,-4.44,
87713,1661606221028,-1.1514,-0.9461,0.4739,-0.48,-13.47,-0.34,
87714,1661606221028,-1.0088,-0.7679,0.2478,-2.97,-23.88,1.39,
87715,1661606221028,-1.23,-0.616,-0.0022,-6.06,-19.23,3.86,
87716,1661606221028,-1.2022,-0.7263,0.6844,-4.77,-10.01,3.68,
87717,1661606221044,-1.2485,-0.5872,0.2649,-5.58,-13.4,3.68,
87718,1661606221044,-1.2236,-0.3196,0.3587,-6.48,-4.01,3.49,
87719,1661606221044,-1.1602,-0.3343,0.2679,-7.27,-11.03,2.67,
87720,1661606221044,-1.0547,-0.4739,0.2591,-10.56,-0.2,8.97,
87721,1661606221044,-1.2676,-0.2415,0.5447,-11.66,-6.04,9.41,
87722,1661606221044,-1.1665,-0.0584,-0.0568,-12.06,-7.81,10.79,
87723,1661606221047,-1.2344,-0.0833,0.5335,-14.55,4.36,12.16,
87724,1661606221047,-1.3145,0.0334,0.7088,-11.47,9.61,10.88,
87725,1661606221047,-1.1987,0.1306,0.1189,-12.67,6.65,8.7,
87726,1661606221047,-1.1074,0.1872,0.3719,-10.37,18.33,7.05,
87727,1661606221047,-1.1138,0.2492,0.5369,-10.87,5.3,6.5,
87728,1661606221047,-1.0317,0.2497,-0.0637,-9.86,10.21,3.58,
87729,1661606221047,-1.125,0.3235,0.4598,-7.77,19.93,6.13,
87730,1661606221047,-1.1094,0.3352,0.1751,-4.37,19.76,4.59,
87731,1661606221047,-1.103,0.3689,-0.1169,-4.48,8.51,4.23,
87732,1661606221047,-1.1108,0.4402,0.261,-3.85,14.18,-1.44,
87733,1661606221047,-1.1821,0.3962,0.4944,-0.97,8.18,4.41,
87734,1661606221047,-0.9287,0.4284,-0.2224,0.73,3.94,0.94,
87735,1661606221047,-1.0728,0.6159,0.5882,3.43,19.76,4.77,
87736,1661606221047,-1.1929,0.6892,0.6678,6.33,24.15,7.78,
87737,1661606221047,-1.0039,0.5813,-0.2302,9.44,19.09,9.69,
87738,1661606221047,-1.1157,0.7859,0.2483,12.22,25.35,7.78,
87739,1661606221047,-0.9028,0.7785,0.0916,11.42,8.85,4.32,
87740,1661606221047,-0.9067,0.7238,-0.3122,16.32,-4.68,1.94,
87741,1661606221047,-0.9185,0.9299,-0.1599,17.42,7.49,2.76,
87742,1661606221047,-0.936,1.0153,-0.0329,22.42,6.9,-4.26,
87743,1661606221047,-0.8193,0.8718,-0.4968,26.42,14.44,-0.7,
87744,1661606221047,-0.8213,0.9113,-0.1276,21.81,17.99,-2.35,
87745,1661606221047,-0.8003,0.8767,-0.155,23.32,5.97,-2.89,
87746,1661606221058,-0.7398,0.8977,-0.2751,28.91,-1.72,-8.55,
87747,1661606221058,-0.7866,0.8357,-0.1403,38.42,4.62,-10.19,
87748,1661606221058,-0.752,0.7043,-0.2463,35.61,8.26,-10.55,
87749,1661606221058,-0.8066,0.7126,-0.2468,32.91,6.06,-11.55,
87750,1661606221058,-0.8613,0.3723,-0.1618,36.11,2.08,-9.64,
87751,1661606221058,-0.8208,0.2624,-0.3889,38.81,-3.08,-11.0,
87752,1661606221058,-0.791,0.2048,-0.3972,37.12,1.57,-12.28,
87753,1661606221058,-0.8008,-0.0472,-0.3508,36.71,-3.49,-13.93,
87754,1661606221058,-0.7783,-0.1243,-0.5739,32.62,-14.4,-8.27,
87755,1661606221058,-0.8296,-0.3631,-0.2717,32.91,-13.47,-5.45,
87756,1661606221058,-0.9805,-0.4246,-0.3171,28.71,-18.89,-9.28,
87757,1661606221058,-0.7539,-0.4763,-0.4445,25.52,-21.61,-10.73,
87758,1661606221058,-0.9092,-0.5555,0.1209,26.01,-13.66,-9.74,
87759,1661606221058,-0.9375,-0.4143,-0.1633,23.11,-19.82,-6.72,
87760,1661606221064,-1.0479,-0.6966,-0.1267,21.22,-19.15,-8.27,
87761,1661606221064,-0.9878,-0.6516,0.4222,20.01,-12.89,-5.08,
87762,1661606221064,-0.9316,-0.5501,-0.2067,15.22,-14.5,-2.44,
87763,1661606221064,-0.9326,-0.6004,-0.2321,12.63,-11.63,-2.79,
87764,1661606221064,-1.0342,-0.5638,0.2474,9.82,-9.17,3.86,
87765,1661606221064,-1.0518,-0.5579,-0.2263,9.53,-22.78,0.21,
87766,1661606221064,-1.021,-0.5799,-0.2673,4.53,-22.45,2.67,
87767,1661606221067,-1.0327,-0.5252,0.2791,1.75,-12.97,1.84,
87768,1661606221067,-1.0444,-0.5305,0.1394,0.73,-13.06,0.94,
87769,1661606221067,-1.0581,-0.4187,0.0374,0.02,-7.98,0.4,
87770,1661606221067,-1.0752,-0.4583,0.4075,-0.27,2.26,4.13,
87771,1661606221067,-1.1323,-0.534,0.1487,-4.77,0.05,0.94,
87772,1661606221067,-1.1641,-0.51,0.0618,-5.67,-1.89,1.84,
87773,1661606221067,-1.2007,-0.5359,0.3343,-9.07,-4.85,-0.52,
87774,1661606221067,-1.1987,-0.616,0.2933,-8.67,-4.35,-0.7,
87775,1661606221067,-1.2446,-0.5662,0.1023,-11.86,-6.88,6.22,
87776,1661606221067,-1.1235,-0.4055,0.4285,-14.76,-5.87,6.68,
87777,1661606221067,-1.3633,-0.427,0.5076,-14.76,-4.59,12.89,
87778,1661606221067,-1.313,-0.4275,0.3064,-15.77,-8.48,8.79,
87779,1661606221067,-1.1543,-0.2674,0.5052,-15.37,0.81,12.8,
87780,1661606221067,-1.2847,-0.0403,0.7947,-17.17,12.31,8.88,
87781,1661606221067,-0.9463,0.0515,0.1785,-13.86,6.65,10.33,
87782,1661606221067,-0.981,0.257,0.5076,-12.87,27.21,8.79,
87783,1661606221067,-1.0918,0.3342,0.4392,-11.77,18.66,10.97,
87784,1661606221067,-1.0112,0.3049,-0.1399,-8.87,8.42,12.16,
87785,1661606221067,-1.0596,0.5803,0.2503,-8.28,5.3,3.95,
87786,1661606221067,-1.1377,0.8298,0.3216,-1.97,0.81,7.96,
87787,1661606221067,-0.9736,0.7063,-0.0905,-0.48,6.15,9.32,
87788,1661606221067,-1.1055,0.8606,0.3684,2.02,22.38,4.32,
87789,1661606221067,-1.0747,0.9499,0.4104,1.95,18.91,8.42,
87790,1661606221067,-1.002,0.8327,0.1097,2.83,16.88,4.04,
87791,1661606221067,-0.9761,1.0046,0.3821,6.83,26.87,6.5,
87792,1661606221067,-0.959,0.9734,0.0169,12.35,19.33,2.67,
87793,1661606221067,-0.8604,0.9196,-0.215,15.02,23.39,0.21,
87794,1661606221067,-0.9082,0.8152,0.0672,19.42,25.94,-0.7,
87795,1661606221067,-0.9482,0.6696,-0.196,18.63,21.7,-0.89,
87796,1661606221067,-0.855,0.7927,-0.4914,16.72,9.95,-0.15,
87797,1661606221067,-0.8877,0.5857,-0.1579,22.91,12.99,2.03,
87798,1661606221067,-0.9155,0.4665,-0.3376,23.61,2.59,-0.34,
87799,1661606221067,-0.8135,0.5295,-0.4978,24.21,-0.88,-1.62,
87800,1661606221067,-0.8867,0.5808,-0.0368,23.83,-0.7,-0.06,
87801,1661606221083,-0.8994,0.5173,0.0457,29.02,-3.33,1.22,
87802,1661606221083,-0.7896,0.3464,-0.2858,31.72,-3.49,-2.79,
87803,1661606221083,-0.7598,0.5451,-0.0603,34.11,5.89,-4.99,
87804,1661606221084,-0.7046,0.5783,-0.1325,30.31,5.13,-4.26,
87805,1661606221084,-0.8784,0.3322,-0.2199,29.72,0.47,-11.28,
87806,1661606221084,-0.752,0.2917,-0.5778,32.62,-5.78,-10.45,
87807,1661606221084,-0.6792,0.2927,-0.4978,38.13,-0.88,-6.72,
87808,1661606221084,-0.9038,0.2409,-0.1501,32.63,-2.99,-5.91,
87809,1661606221084,-0.8032,-0.0359,-0.8606,28.12,-26.6,-8.91,
87810,1661606221084,-0.7583,0.1731,-0.2375,31.72,-16.53,-12.01,
87811,1661606221084,-0.8994,-0.0052,-0.0192,32.91,-12.73,-7.17,
87812,1661606221084,-0.8394,-0.3968,-0.5417,26.1,-14.33,-6.09,
87813,1661606221084,-0.8853,-0.1678,0.3284,24.91,5.3,-11.83,
87814,1661606221084,-0.9863,-0.3846,-0.0319,25.93,-7.74,-15.11,
87815,1661606221084,-0.938,-0.6204,-0.3645,25.22,-13.14,-6.27,
87816,1661606221084,-0.96,-0.6326,0.0579,20.12,-0.79,-8.0,
87817,1661606221084,-0.9941,-0.6868,-0.03,19.42,-15.5,-5.08,
87818,1661606221084,-0.9805,-0.7376,-0.6491,14.72,-26.93,-6.18,
87819,1661606221084,-1.0054,-1.0169,0.2962,8.63,-19.74,-0.98,
87820,1661606221084,-1.0483,-0.929,-0.1545,1.63,-28.37,-1.07,
87821,1661606221084,-0.9116,-0.8465,-0.3313,0.93,-23.71,0.58,
87822,1661606221084,-1.188,-0.9617,0.7747,-0.56,-10.44,3.95,
87823,1661606221084,-0.9648,-0.6668,0.0677,-8.06,-22.11,2.94,
87824,1661606221084,-1.1758,-0.7239,0.1175,-9.27,-16.02,0.85,
87825,1661606221084,-1.0874,-0.7605,0.7552,-4.48,-1.72,8.51,
87826,1661606221084,-1.2188,-0.596,0.4178,-6.48,-12.47,2.58,
87827,1661606221084,-1.167,-0.3553,0.0843,-10.96,-10.01,1.94,
87828,1661606221084,-1.2046,-0.3548,0.2937,-11.18,-10.51,2.03,
87829,1661606221084,-1.1006,-0.4031,0.3933,-9.07,1.07,13.33,
87830,1661606221084,-1.1948,-0.1756,0.1834,-11.37,-7.05,6.68,
87831,1661606221084,-1.0903,-0.1053,0.262,-13.57,-7.05,10.88,
87832,1661606221084,-1.2437,-0.1214,0.7298,-16.47,4.36,10.24,
87833,1661606221084,-1.1709,0.0549,0.3533,-16.68,8.0,9.78,
87834,1661606221098,-1.1963,0.1071,0.199,-15.57,12.24,6.68,
87835,1661606221098,-1.1206,0.1696,0.6228,-12.87,16.46,1.84,
87836,1661606221098,-1.167,0.1711,0.1834,-11.47,1.66,6.41,
87837,1661606221098,-1.0991,0.2981,0.1819,-11.66,6.23,4.59,
87838,1661606221098,-1.1641,0.343,0.5203,-7.07,14.44,6.87,
87839,1661606221098,-1.1099,0.3191,0.2361,-7.67,15.87,5.22,
87840,1661606221098,-1.0869,0.4406,-0.175,-8.37,9.61,4.5,
87841,1661606221098,-1.1997,0.4826,0.6209,-7.38,19.17,4.41,
87842,1661606221098,-1.1924,0.4445,0.2806,-2.07,8.26,3.22,
87843,1661606221098,-0.9868,0.4646,-0.1789,1.54,4.96,8.15,
87844,1661606221098,-1.0195,0.6609,0.4363,0.82,18.4,3.95,
87845,1661606221098,-1.0117,0.7844,0.5013,2.85,18.4,5.86,
87846,1661606221098,-0.8433,0.7116,-0.4162,4.92,8.68,8.88,
87847,1661606221098,-0.8901,0.761,0.0013,6.92,26.18,3.31,
87848,1661606221098,-0.8994,0.8254,0.2933,7.44,12.15,-0.52,
87849,1661606221098,-0.8096,0.7619,-0.5774,15.92,-2.23,1.22,
87850,1661606221098,-0.8457,1.0656,0.1184,21.02,13.84,-1.16,
87851,1661606221098,-0.9878,1.0417,0.1277,21.11,22.29,0.94,
87852,1661606221098,-0.77,0.8957,-0.6506,18.43,17.9,-2.08,
87853,1661606221098,-0.814,0.9431,-0.0764,20.93,13.17,-0.98,
87854,1661606221098,-0.8159,0.841,-0.133,28.01,-2.32,-6.46,
87855,1661606221098,-0.7368,0.8991,-0.3659,33.91,-0.2,-6.09,
87856,1661606221109,-0.8189,0.801,-0.0188,34.92,12.99,-9.92,
87857,1661606221109,-0.7109,0.6814,-0.2678,29.02,17.81,-10.45,
87858,1661606221109,-0.751,0.6623,-0.4699,32.01,3.77,-13.2,
87859,1661606221109,-0.8267,0.3869,-0.3127,34.81,2.84,-9.28,
87860,1661606221109,-0.8418,0.2951,-0.3337,39.71,-7.22,-16.39,
87861,1661606221109,-0.7798,0.0735,-0.4587,34.62,-2.99,-8.91,
87862,1661606221109,-0.8721,-0.1282,-0.3591,32.11,-8.24,-11.64,
87863,1661606221109,-0.7163,-0.1155,-0.5134,31.72,-18.39,-8.55,
87864,1661606221109,-0.8999,-0.4334,-0.2224,33.72,-17.79,-7.54,
87865,1661606221109,-0.9507,-0.4275,-0.2356,27.81,-13.82,-7.08,
87866,1661606221109,-0.794,-0.5139,-0.2819,22.01,-22.78,-9.64,
87867,1661606221109,-0.9526,-0.4358,0.22,23.52,-17.12,-6.53,
87868,1661606221109,-1.0151,-0.4607,-0.1926,23.94,-17.29,-5.91,
87869,1661606221109,-0.9878,-0.6668,-0.0803,17.73,-15.17,-6.46,
87870,1661606221109,-1.021,-0.4842,0.2391,16.21,-14.83,-11.92,
87871,1661606221109,-0.9902,-0.534,-0.0578,18.01,-15.33,-1.99,
87872,1661606221109,-0.9439,-0.593,-0.3864,10.83,-12.47,-3.07,
87873,1661606221109,-1.0288,-0.4651,0.1414,6.72,-12.97,-1.44,
87874,1661606221109,-1.021,-0.5457,-0.0964,9.82,-21.01,0.94,
87875,1661606221109,-1.0376,-0.5159,-0.0012,6.02,-16.78,2.03,
87876,1661606221109,-1.0977,-0.5354,0.3025,1.03,-12.47,2.76,
87877,1661606221109,-1.0034,-0.4783,0.0447,-0.88,-8.48,2.21,
87878,1661606221109,-1.0996,-0.489,0.2215,-2.37,-5.02,-1.99,
87879,1661606221109,-1.1509,-0.5203,0.3533,-3.07,0.47,0.3,
87880,1661606221109,-1.1294,-0.5672,0.1546,-6.28,-0.53,-2.17,
87881,1661606221109,-1.1831,-0.5467,0.1477,-8.96,-0.37,-1.34,
87882,1661606221109,-1.2422,-0.6155,0.285,-10.67,-7.55,-1.07,
87883,1661606221109,-1.209,-0.6355,0.2005,-10.56,-7.81,6.32,
87884,1661606221109,-1.294,-0.5398,0.2781,-15.26,-8.32,7.41,
87885,1661606221109,-1.1563,-0.3929,0.4661,-16.55,-6.81,7.96,
87886,1661606221109,-1.3696,-0.4554,0.5218,-16.07,-8.32,11.7,
87887,1661606221109,-1.3301,-0.4246,0.5086,-19.26,-5.19,8.24,
87888,1661606221109,-1.2295,-0.1756,0.5584,-17.07,1.91,11.43,
87889,1661606221109,-1.2192,-0.0115,0.6219,-19.86,16.46,6.87,
87890,1661606221109,-1.1963,0.1633,0.2327,-17.97,7.42,10.15,
87891,1661606221125,-1.127,0.3562,0.3875,-16.96,13.17,9.23,
87892,1661606221125,-1.1025,0.3288,-0.0139,-12.96,-8.32,8.06,
87893,1661606221125,-1.0107,0.4992,0.0794,-11.47,8.76,10.42,
87894,1661606221125,-1.0938,0.7273,0.3567,-6.37,16.37,9.5,
87895,1661606221125,-1.1382,0.8254,0.0408,-4.57,13.75,7.23,
87896,1661606221125,-1.0059,0.8259,0.1394,-5.87,13.17,6.13,
87897,1661606221125,-1.1367,0.9172,0.4412,-4.17,12.57,0.94,
87898,1661606221125,-1.0112,0.9128,0.242,-0.68,13.17,6.22,
87899,1661606221125,-1.0205,0.8659,0.1858,5.43,23.06,-2.35,
87900,1661606221125,-0.9614,0.9236,0.3997,9.82,34.56,0.85,
87901,1661606221125,-0.937,0.8928,-0.2165,10.64,26.11,0.03,
87902,1661606221125,-0.917,0.8191,-0.0461,13.01,26.87,-3.89,
87903,1661606221125,-0.919,0.7605,0.0984,13.82,16.88,-3.16,
87904,1661606221125,-0.9209,0.7019,-0.3698,15.02,7.16,-6.36,
87905,1661606221125,-0.8809,0.6999,-0.4973,19.04,5.22,1.13,
87906,1661606221125,-0.9419,0.5476,0.0589,19.11,10.71,-3.07,
87907,1661606221125,-0.894,0.5476,-0.4221,20.82,-4.09,-2.7,
87908,1661606221125,-0.7915,0.6501,-0.1076,23.92,-2.65,-2.17,
87909,1661606221125,-0.9107,0.6443,0.241,29.72,5.46,-3.34,
87910,1661606221125,-0.8916,0.447,0.0193,29.02,1.91,-6.0,
87911,1661606221125,-0.8042,0.447,-0.4006,28.82,4.36,-5.72,
87912,1661606221125,-0.7222,0.6047,0.0887,27.72,7.32,-5.54,
87913,1661606221125,-0.9043,0.3786,-0.3064,30.31,0.98,-4.08,
87914,1661606221125,-0.8403,0.3127,-0.6569,31.52,-3.25,-4.62,
87915,1661606221125,-0.7588,0.3908,-0.5637,32.51,-3.16,-8.18,
87916,1661606221125,-0.7222,0.3025,-0.2092,32.62,-1.05,-7.17,
87917,1661606221125,-0.8574,0.0778,-0.531,33.91,-11.11,-7.36,
87918,1661606221125,-0.7485,0.0446,-0.573,28.82,-17.36,-11.64,
87919,1661606221125,-0.8672,0.1643,0.0896,28.31,-14.33,-15.11,
87920,1661606221125,-0.9209,-0.1951,-0.403,31.11,-9.67,-8.27,
87921,1661606221125,-0.8667,-0.2864,-0.0525,27.32,-2.23,-12.1,
87922,1661606221125,-1.0244,-0.177,0.285,23.72,-5.62,-13.02,
87923,1661606221125,-1.0166,-0.5642,-0.361,23.61,-15.85,-13.2,
87924,1661606221125,-0.98,-0.6702,0.0325,21.81,-4.09,-3.43,
87925,1661606221125,-0.9531,-0.6223,0.1785,17.02,-5.95,-6.09,
87926,1661606221125,-1.0562,-0.6931,-0.447,11.62,-28.11,-5.27,
87927,1661606221141,-1.0347,-0.8684,-0.2502,12.52,-24.22,-5.82,
87928,1661606221141,-1.0562,-0.9832,0.3035,8.33,-20.32,0.85,
87929,1661606221141,-1.0361,-0.8167,-0.3957,1.75,-27.77,-0.15,
87930,1661606221141,-1.0049,-0.8699,0.1521,-0.97,-20.25,2.49,
87931,1661606221141,-1.1567,-0.8186,0.6521,-3.58,-18.13,3.04,
87932,1661606221141,-1.1108,-0.6028,-0.2136,-8.17,-20.92,8.7,
87933,1661606221141,-1.1426,-0.7288,0.469,-10.06,-4.52,2.21,
87934,1661606221141,-1.1607,-0.7263,0.782,-9.27,-6.81,6.41,
87935,1661606221145,-1.229,-0.5013,0.0618,-8.06,-7.74,-0.61,
87936,1661606221145,-1.2241,-0.3221,0.178,-10.76,-5.11,4.5,
87937,1661606221145,-1.2398,-0.4099,0.4739,-11.16,-4.26,5.49,
87938,1661606221145,-1.187,-0.2688,0.2181,-12.47,-4.35,8.51,
87939,1661606221145,-1.2529,-0.0794,0.2576,-15.66,-0.46,3.68,
87940,1661606221145,-1.1885,-0.1707,0.5467,-16.67,5.04,7.14,
87941,1661606221145,-1.312,-0.1482,0.5862,-17.75,11.22,6.32,
87942,1661606221145,-1.207,0.1189,0.4339,-17.46,6.65,3.4,
87943,1661606221145,-1.2134,0.1902,0.3973,-17.37,11.72,7.32,
87944,1661606221145,-1.1841,0.1203,0.5159,-16.06,11.22,2.49,
87945,1661606221145,-1.1875,0.219,0.0989,-13.46,3.36,10.42,
87946,1661606221145,-1.1519,0.3405,0.387,-11.07,12.15,7.14,
87947,1661606221145,-1.1279,0.301,0.4534,-7.97,17.47,8.51,
87948,1661606221145,-1.1162,0.3171,0.076,-11.86,9.45,7.78,
87949,1661606221145,-1.0596,0.5398,0.1004,-9.97,6.82,3.13,
87950,1661606221145,-1.2036,0.5022,0.6097,-7.97,8.68,6.22,
87951,1661606221145,-1.1777,0.4109,0.4222,-3.77,2.76,-0.52,
87952,1661606221145,-0.9736,0.4817,-0.0754,-1.17,9.02,4.32,
87953,1661606221145,-1.0552,0.7195,0.618,0.42,28.38,3.95,
87954,1661606221145,-0.9307,0.6848,0.0149,4.42,23.91,6.41,
87955,1661606221145,-0.7109,0.7292,-0.3347,7.62,30.58,2.94,
87956,1661606221145,-0.9492,0.884,0.1746,10.11,29.74,-1.44,
87957,1661606221145,-0.877,0.7942,-0.134,11.53,15.78,6.13,
87958,1661606221145,-0.8496,0.7859,-0.3176,16.92,7.92,6.96,
87959,1661606221145,-0.9287,1.0324,0.1917,16.63,15.61,4.04,
87960,1661606221145,-0.8809,1.0134,-0.2053,15.12,-1.82,5.95,
87961,1661606221145,-0.749,0.9089,-0.4455,19.02,15.2,-3.07,
87962,1661606221145,-0.8042,0.9362,0.1892,21.72,18.07,-0.43,
87963,1661606221145,-0.8242,0.8298,-0.3386,26.71,5.8,-5.08,
87964,1661606221145,-0.811,0.9138,-0.1355,30.62,5.89,-6.53,
87965,1661606221145,-0.833,0.7224,-0.0222,31.41,8.93,-10.19,
87966,1661606221145,-0.7583,0.6765,-0.3093,31.02,1.4,-10.38,
87967,1661606221145,-0.7803,0.5549,-0.5695,30.12,1.4,-15.11,
87968,1661606221145,-0.834,0.3181,-0.1565,35.14,2.59,-12.38,
87969,1661606221145,-0.8218,0.2287,-0.5583,38.31,-3.92,-13.11,
87970,1661606221161,-0.7144,0.008,-0.3962,31.61,-5.62,-10.64,
87971,1661606221161,-0.8984,-0.1614,-0.3513,27.11,-17.29,-9.1,
87972,1661606221161,-0.7329,-0.2151,-0.5031,29.02,-14.59,-9.1,
87973,1661606221161,-0.9658,-0.4129,-0.0686,28.31,-8.67,-9.64,
87974,1661606221161,-0.8355,-0.3772,-0.2824,25.11,-23.28,-4.81,
87975,1661606221161,-0.7949,-0.4949,-0.2522,22.12,-18.98,-0.43,
87976,1661606221161,-0.9434,-0.3719,0.2688,24.52,-9.34,-8.64,
87977,1661606221161,-1.021,-0.4202,-0.0334,22.52,-17.2,-8.91,
87978,1661606221161,-0.9605,-0.7122,-0.3659,17.11,-17.46,-4.17,
87979,1661606221165,-0.9839,-0.4925,0.2713,15.02,-15.85,-4.99,
87980,1661606221165,-0.9111,-0.5887,-0.1906,14.72,-21.35,-1.8,
87981,1661606221165,-0.9732,-0.593,-0.2795,10.32,-11.2,-2.17,
87982,1661606221165,-1.0273,-0.4529,0.2112,4.72,-14.5,1.94,
87983,1661606221165,-1.041,-0.5808,-0.0803,3.63,-25.83,1.57,
87984,1661606221165,-1.0732,-0.4832,0.1531,2.13,-17.96,0.85,
87985,1661606221165,-1.0855,-0.4671,0.24,0.53,-11.03,2.3,
87986,1661606221165,-1.0181,-0.4075,0.0555,-0.36,-7.81,-1.16,
87987,1661606221165,-1.085,-0.4763,0.1228,-3.87,-5.62,2.49,
87988,1661606221165,-1.1074,-0.6097,0.2434,-4.48,-7.22,2.85,
87989,1661606221165,-1.0889,-0.531,0.0467,-6.28,-4.26,4.23,
87990,1661606221165,-1.251,-0.6072,0.2161,-9.16,-2.15,-0.15,
87991,1661606221165,-1.2466,-0.7171,0.1707,-10.06,-10.44,5.58,
87992,1661606221165,-1.2246,-0.6302,0.2747,-15.46,-10.94,5.77,
87993,1661606221165,-1.3164,-0.4827,0.3694,-14.47,-9.84,7.6,
87994,1661606221165,-1.2105,-0.451,0.3875,-19.46,-4.94,5.22,
87995,1661606221165,-1.3657,-0.468,0.6565,-22.16,-4.94,13.43,
87996,1661606221165,-1.3145,-0.3582,0.636,-23.37,-3.59,5.86,
87997,1661606221165,-1.3047,-0.1648,0.4583,-17.37,1.5,10.69,
87998,1661606221165,-1.1567,-0.0125,0.6209,-16.36,11.47,10.6,
87999,1661606221165,-1.2398,0.2693,0.2923,-19.37,3.86,10.97,
88000,1661606221165,-1.1675,0.3654,0.1902,-16.87,10.45,9.6,
88001,1661606221165,-1.083,0.2663,0.1253,-13.25,9.52,7.96,
88002,1661606221165,-1.0161,0.4558,0.1512,-11.66,14.18,10.15,
88003,1661606221165,-1.0684,0.8889,0.1722,-11.47,7.42,6.77,
88004,1661606221165,-1.0239,0.8005,0.1058,-9.86,5.8,11.61,
88005,1661606221165,-1.021,0.8425,0.325,-6.35,12.65,8.88,
88006,1661606221165,-1.0918,0.8947,0.3577,-1.07,17.4,4.68,
88007,1661606221165,-0.9609,0.8991,0.1165,3.63,23.39,1.3,
88008,1661606221165,-0.8843,0.9377,0.3343,5.43,33.13,1.22,
88009,1661606221165,-0.9248,0.8669,0.1829,6.33,34.73,-0.61,
88010,1661606221165,-1.0332,0.8449,-0.1276,9.12,27.97,-2.26,
88011,1661606221165,-0.9263,0.7624,-0.1941,11.93,22.63,-3.16,
88012,1661606221165,-0.9175,0.7121,0.0496,11.32,15.11,-3.16,
88013,1661606221181,-0.979,0.7175,-0.3864,12.13,2.5,-5.08,
88014,1661606221181,-0.8496,0.6096,-0.321,16.72,8.85,-1.8,
88015,1661606221181,-0.9619,0.5251,0.0506,22.41,9.35,-4.72,
