srNo,timestamp,ax,ay,az,gx,gy,gz,temp
68960,1661609418499,-0.795,0.9479,0.1253,-4.72,31.48,-2.83,
68961,1661609418499,-0.8897,0.8009,-0.0725,-5.71,25.9,-6.75,
68962,1661609418499,-0.7769,0.8034,-0.3401,-2.03,15.75,-5.48,
68963,1661609418499,-0.7965,0.6959,-0.2409,4.3,27.33,-3.01,
68964,1661609418499,-0.7779,0.6403,-0.2605,8.88,31.15,-7.3,
68965,1661609418499,-0.7608,0.3248,-0.718,6.16,16.68,-4.11,
68966,1661609418499,-0.647,0.3463,-0.5896,6.48,7.37,-4.66,
68967,1661609418499,-0.8424,0.5509,-0.1828,3.19,-4.3,-6.4,
68968,1661609418499,-0.5831,0.2389,-0.6457,7.67,-14.11,-1.38,
68969,1661609418499,-0.7637,0.2765,-0.3537,8.48,-5.99,-0.37,
68970,1661609418499,-0.7838,0.296,0.1629,9.69,11.6,-4.02,
68971,1661609418499,-0.7955,0.1036,-0.3708,9.29,-11.39,-0.28,
68972,1661609418499,-0.7315,0.1715,-0.4963,11.9,-0.91,-3.83,
68973,1661609418499,-0.7442,0.1173,0.2981,11.29,-4.54,1.17,
68974,1661609418499,-0.8282,-0.0726,-0.6106,6.68,-1.93,-1.01,
68975,1661609418499,-0.6539,-0.1449,-0.758,5.67,-11.23,-0.37,
68976,1661609418499,-0.9576,-0.2679,0.2293,3.69,4.58,0.36,
68977,1661609418499,-0.8448,-0.0033,0.0696,4.19,-15.97,-7.3,
68978,1661609418499,-0.774,-0.264,-1.0847,2.99,-23.07,-0.74,
68979,1661609418499,-0.8502,-0.4525,-0.011,-2.51,-10.63,-1.84,
68980,1661609418499,-1.0435,-0.2933,-0.0735,-5.39,-22.23,0.18,
68981,1661609418499,-1.0513,-0.5331,-0.1614,-8.21,-11.91,-1.56,
68982,1661609418499,-1.0489,-0.475,0.2337,-8.23,-10.89,-2.92,
68983,1661609418499,-1.1436,-0.7367,-0.0202,-8.11,-9.7,-4.38,
68984,1661609418499,-1.0968,-0.5975,0.2424,-12.79,-0.65,-1.01,
68985,1661609418499,-1.047,-0.7543,0.052,-14.23,-4.54,-9.22,
68986,1661609418499,-1.1817,-0.8827,-0.3034,-15.81,-7.76,-3.19,
68987,1661609418499,-1.1734,-0.6976,0.1101,-21.31,-5.83,0.27,
68988,1661609418499,-1.1871,-0.9169,0.1633,-32.18,-19.18,6.28,
68989,1661609418499,-1.2242,-0.9491,-0.0456,-32.31,-33.14,1.35,
68990,1661609418499,-1.1373,-0.7479,-0.0212,-26.08,-19.27,9.93,
68991,1661609418515,-1.3516,-0.7162,0.7454,-34.31,-7.6,7.2,
68992,1661609418515,-1.2745,-0.5023,0.6883,-40.49,-17.67,11.85,
68993,1661609418515,-1.4068,-0.6913,0.0618,-37.89,-12.84,9.84,
68994,1661609418515,-1.2994,-0.287,1.301,-35.4,23.7,11.3,
68995,1661609418515,-1.3761,-0.2806,0.4739,-38.18,17.18,8.85,
68996,1661609418515,-1.1715,-0.2479,-0.1765,-41.69,10.0,7.38,
68997,1661609418515,-1.3038,0.0231,1.1384,-38.4,8.9,9.75,
68998,1661609418515,-1.2447,0.1549,0.3401,-36.99,1.12,8.94,
68999,1661609418515,-1.3233,0.0221,-0.4802,-34.98,-12.75,9.47,
69000,1661609418515,-1.3023,0.1603,0.5681,-40.88,19.14,7.2,
69001,1661609418515,-1.3878,0.4196,1.2776,-38.88,12.36,5.64,
69002,1661609418515,-1.1695,0.4347,-0.1208,-37.51,4.17,9.1,
69003,1661609418515,-1.0723,0.4757,0.6458,-32.58,23.11,7.01,
69004,1661609418515,-1.1602,0.5914,0.9314,-29.61,35.97,5.82,
69005,1661609418515,-1.1842,0.61,0.4275,-29.41,31.99,6.46,
69006,1661609418515,-1.0245,0.5783,-0.1848,-25.0,30.22,6.83,
69007,1661609418515,-1.0128,0.4957,0.1912,-22.71,24.54,7.29,
69008,1661609418515,-1.0689,0.6925,0.0379,-19.9,17.44,8.75,
69009,1661609418515,-0.918,0.6144,-0.3606,-20.31,10.84,9.56,
69010,1661609418515,-0.8282,0.5001,-0.2366,-15.9,14.32,9.65,
69011,1661609418515,-0.9918,0.6188,0.1389,-15.9,13.72,5.46,
69012,1661609418515,-0.9947,0.7335,0.4265,-14.91,8.81,5.02,
69013,1661609418515,-0.9127,0.6408,-0.073,-10.41,6.03,8.66,
69014,1661609418515,-0.9161,0.6827,0.4876,-6.99,24.97,6.01,
69015,1661609418515,-0.9683,0.7438,0.3967,-5.62,22.68,2.73,
69016,1661609418515,-0.8892,0.8453,0.0398,-2.8,33.01,1.99,
69017,1661609418515,-0.647,0.7081,-0.4407,1.06,25.56,2.73,
69018,1661609418515,-0.9376,0.6925,-0.1946,1.89,27.0,-2.83,
69019,1661609418515,-0.8004,0.9537,-0.0886,5.28,19.98,-4.84,
69020,1661609418515,-0.5675,0.5812,-1.0671,3.57,9.24,-2.39,
69021,1661609418515,-0.6085,0.6725,-1.0842,4.68,0.35,-4.2,
69022,1661609418515,-0.7428,0.6876,-0.3933,3.28,-8.27,-7.21,
69023,1661609418515,-0.7501,0.7086,-0.1018,6.68,1.29,-5.12,
69024,1661609418515,-0.6095,0.4313,-1.0188,11.81,-4.79,-8.93,
69025,1661609418515,-0.7896,0.361,-0.1155,8.98,17.52,-9.4,
69026,1661609418531,-0.8746,0.5075,0.4241,10.27,20.4,-12.69,
69027,1661609418531,-0.7428,0.1217,-0.4133,8.17,-2.87,-12.14,
69028,1661609418531,-0.6651,-0.0433,-0.8274,10.1,-4.21,-11.31,
69029,1661609418531,-0.8599,-0.0184,-0.1482,10.78,3.91,-10.14,
69030,1661609418531,-0.7847,-0.3661,-0.4451,4.18,-2.68,-11.49,
69031,1661609418531,-0.9312,-0.4794,-0.6706,-1.32,-18.84,-11.95,
69032,1661609418531,-0.9425,-0.576,-0.2751,-1.62,-31.95,-7.02,
69033,1661609418531,-1.0245,-0.6141,0.0989,-0.9,-18.25,-2.74,
69034,1661609418531,-0.8902,-0.7216,0.0159,-8.01,-4.47,-0.83,
69035,1661609418531,-1.0196,-0.7997,-0.4099,-14.41,-25.62,-0.74,
69036,1661609418531,-1.15,-0.5599,0.7722,-9.11,-14.19,1.44,
69037,1661609418531,-1.2325,-0.8246,0.1966,-9.82,-10.05,3.83,
69038,1661609418531,-1.0318,-0.829,-0.4211,-18.1,-4.3,-0.28,
69039,1661609418531,-0.9434,-0.6464,-0.1765,-23.0,-18.76,-2.74,
69040,1661609418531,-1.2725,-0.6556,0.721,-20.31,-11.49,-1.93,
69041,1661609418531,-1.0562,-0.5287,-0.4167,-19.2,-19.01,1.0,
69042,1661609418531,-1.1495,-0.806,-0.4861,-32.6,-7.0,4.1,
69043,1661609418531,-1.3385,-0.3768,0.9661,-35.6,-20.7,-0.92,
69044,1661609418531,-1.2623,-0.5751,0.0872,-30.8,-21.37,2.73,
69045,1661609418531,-1.1871,-0.4916,0.1765,-32.31,-3.37,2.36,
69046,1661609418531,-1.3785,-0.4203,1.0261,-41.08,9.83,3.73,
69047,1661609418531,-1.3336,-0.3553,0.906,-39.2,10.33,2.36,
69048,1661609418531,-1.1739,-0.4296,0.0882,-32.11,2.81,6.1,
69049,1661609418531,-1.2623,-0.4813,0.2317,-35.01,17.28,6.83,
69050,1661609418531,-1.3546,-0.326,0.7576,-42.9,21.17,6.65,
69051,1661609418531,-1.3013,-0.2797,0.2156,-44.18,13.22,7.2,
69052,1661609418531,-1.1285,-0.3256,-0.0803,-40.79,-1.17,14.12,
69053,1661609418531,-1.3458,-0.0795,0.3982,-36.58,7.97,15.22,
69054,1661609418531,-1.1334,0.0055,0.4558,-42.0,5.01,19.51,
69055,1661609418531,-1.1524,0.0343,0.3523,-43.28,6.87,16.05,
69056,1661609418531,-1.0582,0.2623,0.3294,-40.71,-2.44,18.05,
69057,1661609418531,-1.2847,0.2594,0.4016,-38.59,2.89,14.12,
69058,1661609418546,-1.1827,0.5328,1.0906,-32.89,24.97,14.86,
69059,1661609418546,-1.2061,0.4855,0.2761,-30.8,19.55,15.04,
69060,1661609418546,-0.9727,0.7599,0.1101,-31.1,22.68,12.4,
69061,1661609418546,-1.1158,0.755,0.699,-23.9,24.71,13.21,
69062,1661609418546,-0.9283,0.88,0.1521,-20.6,34.78,8.11,
69063,1661609418546,-0.8868,0.8053,-0.6872,-19.4,11.86,8.94,
69064,1661609418546,-0.9908,0.8073,-0.0364,-24.8,26.49,6.46,
69065,1661609418546,-0.9928,1.0534,0.7127,-17.2,8.47,8.48,
69066,1661609418546,-0.8643,0.8121,-0.5837,-12.21,9.57,4.74,
69067,1661609418546,-0.8126,1.0084,0.1648,-7.82,22.77,3.83,
69068,1661609418546,-0.9434,0.879,0.3313,-8.61,31.56,3.83,
69069,1661609418546,-0.8922,0.8034,0.0208,-10.01,34.27,0.54,
69070,1661609418546,-0.753,0.8712,-0.4543,-4.52,33.77,2.36,
69071,1661609418546,-0.7984,0.7213,-0.1111,-1.91,30.38,-0.55,
69072,1661609418546,-0.7545,0.7164,-0.406,5.78,16.76,1.54,
69073,1661609418546,-0.6759,0.486,-0.8376,7.59,12.53,-1.2,
69074,1661609418546,-0.6275,0.4464,-0.4304,5.98,10.33,-4.29,
69075,1661609418546,-0.8145,0.5309,-0.3406,2.48,-0.15,-4.84,
69076,1661609418546,-0.7662,0.3595,-0.5974,4.88,-5.64,-3.93,
69077,1661609418546,-0.8009,0.3165,-0.4426,5.67,-6.83,-5.76,
69078,1661609418546,-0.8204,0.3761,0.1599,8.98,4.58,-8.31,
69079,1661609418546,-0.9537,0.0543,-0.5935,9.69,-15.29,-4.29,
69080,1661609418546,-0.6817,0.0651,-0.5232,6.37,4.25,-5.94,
69081,1661609418546,-0.7305,0.1676,0.2708,3.98,3.82,-4.48,
69082,1661609418546,-0.9522,-0.0428,-0.345,1.2,5.44,-6.93,
69083,1661609418546,-0.7193,0.0504,-0.7693,4.99,-4.38,-8.58,
69084,1661609418546,-0.879,-0.3383,-0.1565,4.59,2.55,-3.93,
69085,1661609418546,-0.8219,-0.1171,-0.0896,1.28,-8.36,-3.83,
69086,1661609418546,-0.8087,-0.0692,-0.9909,-2.74,-27.89,-3.93,
69087,1661609418546,-0.8321,-0.4481,-0.1423,-6.41,-14.87,-7.85,
69088,1661609418546,-1.0308,-0.3173,-0.0417,-5.91,-24.76,-3.65,
69089,1661609418546,-1.0528,-0.516,-0.1911,-10.52,-19.44,-5.85,
69090,1661609418546,-1.0587,-0.4667,0.491,-11.2,-13.94,-5.48,
69091,1661609418546,-1.1676,-0.7074,0.1619,-10.01,-9.03,-2.48,
69092,1661609418562,-1.1373,-0.7455,0.159,-14.81,-4.3,-3.56,
69093,1661609418562,-1.0894,-0.7089,0.4094,-17.81,-2.44,-5.85,
69094,1661609418562,-1.147,-0.9017,-0.1872,-19.49,-10.13,3.64,
69095,1661609418562,-1.1256,-0.7255,-0.2029,-25.32,-4.54,2.54,
69096,1661609418562,-1.0889,-0.8412,0.1731,-34.31,-6.33,2.27,
69097,1661609418562,-1.2262,-0.8597,-0.2077,-36.29,-27.39,-0.28,
69098,1661609418562,-1.0177,-0.7186,-0.0837,-26.31,-27.39,7.38,
69099,1661609418562,-1.3287,-0.7841,0.3767,-32.41,-1.84,7.01,
69100,1661609418562,-1.3404,-0.5804,0.8606,-39.4,-3.7,8.02,
69101,1661609418562,-1.4117,-0.7259,0.0169,-44.3,-19.27,9.47,
69102,1661609418562,-1.2867,-0.4169,1.0081,-43.8,5.94,5.27,
69103,1661609418562,-1.3409,-0.2718,0.7864,-36.78,10.0,8.2,
69104,1661609418562,-1.1563,-0.2406,0.0642,-41.29,22.94,7.38,
69105,1661609418562,-1.255,-0.1009,0.885,-45.6,22.77,8.11,
69106,1661609418562,-1.2349,0.1354,0.5652,-47.41,14.06,6.74,
69107,1661609418562,-1.3892,0.0968,-0.1731,-41.6,-14.28,10.84,
69108,1661609418562,-1.2974,0.0617,0.262,-42.39,9.24,9.47,
69109,1661609418562,-1.255,0.3932,1.1878,-42.8,13.22,2.73,
69110,1661609418562,-1.1055,0.4181,-0.0686,-41.08,8.06,4.19,
69111,1661609418562,-1.0059,0.4303,0.4729,-37.59,15.49,6.37,
69112,1661609418562,-1.1075,0.5021,1.1399,-31.28,25.47,9.2,
69113,1661609418562,-1.2315,0.4933,0.7654,-29.42,28.6,5.18,
69114,1661609418562,-1.1607,0.5914,-0.0447,-30.2,30.64,10.29,
69115,1661609418562,-1.109,0.5162,0.3274,-34.11,30.72,8.02,
69116,1661609418562,-1.0264,0.6022,0.1775,-31.8,24.37,8.39,
69117,1661609418562,-0.9205,0.7267,-0.3992,-23.61,24.89,8.02,
69118,1661609418562,-0.6969,0.5553,-0.4636,-16.01,24.37,7.75,
69119,1661609418562,-0.9117,0.7618,0.0535,-15.69,21.93,9.75,
69120,1661609418562,-0.9898,0.8566,0.1975,-19.9,15.92,7.11,
69121,1661609418562,-0.9254,0.6539,-0.3684,-16.01,-3.45,4.83,
69122,1661609418562,-0.8858,0.6657,0.0554,-10.11,11.69,4.92,
69123,1661609418562,-0.9932,0.7638,0.5481,-10.52,21.58,8.66,
69124,1661609418562,-0.7847,0.8986,-0.1457,-12.21,31.15,2.82,
69125,1661609418562,-0.8287,0.6305,-0.2302,-5.13,19.81,3.28,
69126,1661609418578,-0.9293,0.5944,0.2503,-4.72,30.64,1.26,
69127,1661609418578,-0.8136,1.0148,0.1824,-2.92,21.93,-2.48,
69128,1661609418578,-0.6016,0.6691,-1.05,0.79,19.21,-2.57,
69129,1661609418578,-0.5924,0.7316,-0.5974,-1.41,12.53,-4.2,
69130,1661609418578,-0.7296,0.7047,-0.3064,-1.01,-1.34,-3.83,
69131,1661609418578,-0.63,0.7858,-0.6994,3.25,-4.47,-5.39,
69132,1661609418578,-0.5045,0.6266,-1.0984,10.98,-11.06,-9.04,
69133,1661609418578,-0.7589,0.2604,-0.5491,7.27,3.31,-10.95,
69134,1661609418578,-0.8223,0.4259,0.2776,1.38,1.79,-15.05,
69135,1661609418578,-0.6314,0.0026,-0.6975,-0.22,-3.54,-9.22,
69136,1661609418578,-0.6412,-0.0687,-0.5422,5.69,-2.94,-12.96,
69137,1661609418578,-0.8316,-0.1073,0.1477,10.3,8.81,-12.14,
69138,1661609418578,-0.755,-0.2294,-0.1008,7.18,4.34,-9.59,
69139,1661609418578,-0.8228,-0.4271,-0.7883,-3.21,-6.57,-14.59,
69140,1661609418578,-0.9244,-0.5062,-0.405,-1.01,-30.61,-7.02,
69141,1661609418578,-1.0465,-0.5736,-0.0842,-1.82,-29.16,-4.38,
69142,1661609418578,-0.9483,-0.5663,-0.1218,-14.53,-15.38,-5.12,
69143,1661609418578,-0.9644,-0.8856,-0.6057,-13.2,-33.73,0.45,
69144,1661609418578,-1.1095,-0.5663,0.6555,-13.0,-16.38,-0.1,
69145,1661609418578,-1.1998,-0.6927,0.4387,-12.1,-12.59,2.73,
69146,1661609418578,-0.9845,-0.8412,-0.487,-25.68,-12.08,2.36,
69147,1661609418578,-1.1905,-0.6488,0.5388,-26.01,-9.03,-3.29,
69148,1661609418578,-1.1324,-0.4408,0.6795,-26.01,0.69,-3.29,
69149,1661609418578,-0.8927,-0.684,-1.0779,-22.79,-18.25,-1.38,
69150,1661609418578,-1.1402,-0.6298,0.3294,-34.89,-5.83,2.82,
69151,1661609418578,-1.2994,-0.3607,0.7283,-33.09,-19.7,3.09,
69152,1661609418578,-1.17,-0.5946,-0.3708,-28.89,-25.36,3.09,
69153,1661609418578,-1.2003,-0.5721,-0.0305,-37.19,-11.23,-0.46,
69154,1661609418578,-1.4058,-0.4965,0.9734,-45.2,-1.0,6.92,
69155,1661609418578,-1.3487,-0.4159,0.9617,-36.2,2.98,6.37,
69156,1661609418578,-1.2144,-0.5131,0.2791,-33.41,6.11,12.77,
69157,1661609418578,-1.3106,-0.555,0.7,-41.71,16.25,9.47,
69158,1661609418593,-1.4561,-0.2855,0.9509,-49.79,13.63,9.65,
69159,1661609418593,-1.1929,-0.3534,0.4109,-50.5,11.86,10.2,
69160,1661609418593,-1.3717,-0.3592,-0.0349,-41.69,9.49,13.39,
69161,1661609418593,-1.3004,0.0451,0.5794,-45.09,17.18,11.67,
69162,1661609418593,-1.1051,0.1159,0.6624,-46.68,5.27,14.03,
69163,1661609418593,-1.1231,-0.0433,0.0882,-43.78,6.37,11.85,
69164,1661609418593,-0.9986,0.2028,-0.0173,-40.09,-0.91,10.84,
69165,1661609418593,-1.1397,0.3849,0.657,-41.4,23.87,12.49,
69166,1661609418593,-1.0216,0.527,0.6756,-42.8,19.72,15.86,
69167,1661609418597,-1.1905,0.4,-0.2737,-37.1,14.22,12.84,
69168,1661609418597,-1.1148,0.8551,0.6887,-29.61,21.58,13.58,
69169,1661609418597,-1.1998,0.755,0.594,-30.92,30.98,9.29,
69170,1661609418597,-0.9195,0.796,0.1819,-27.82,30.46,10.66,
69171,1661609418597,-0.9512,0.7872,-0.3996,-27.12,20.57,11.12,
69172,1661609418597,-0.9293,0.9533,0.6922,-25.99,35.37,3.83,
69173,1661609418597,-0.8741,0.9332,0.0823,-17.31,16.01,7.84,
69174,1661609418597,-0.7442,0.8302,-0.53,-13.2,23.44,2.54,
69175,1661609418597,-0.8116,0.942,0.3015,-13.49,26.4,2.18,
69176,1661609418597,-0.8448,0.8795,0.2449,-13.49,26.66,3.46,
69177,1661609418597,-0.7725,0.7584,-0.2507,-13.52,15.83,1.54,
69178,1661609418597,-0.7667,0.7394,-0.3127,-8.63,15.41,1.72,
69179,1661609418597,-0.7501,0.6617,-0.0408,-6.61,19.31,3.55,
69180,1661609418603,-0.7667,0.653,-0.4695,-5.91,19.81,2.18,
69181,1661609418603,-0.6285,0.4576,-0.6404,-6.52,15.32,3.0,
69182,1661609418603,-0.5357,0.443,-0.5163,-0.11,10.84,1.09,
69183,1661609418603,-0.8023,0.6222,-0.4201,2.88,4.92,4.01,
69184,1661609418603,-0.6075,0.3839,-0.7068,1.7,2.22,-1.47,
69185,1661609418603,-0.6187,0.4518,-0.613,-0.02,0.52,-3.38,
69186,1661609418603,-0.5181,0.3038,-0.1736,1.19,4.92,-1.65,
69187,1661609418608,-0.7945,0.1993,-0.3469,2.18,-9.7,-5.12,
69188,1661609418608,-0.7052,0.2389,-0.8274,2.16,-9.03,-9.04,
69189,1661609418608,-0.8424,0.0592,-0.0583,2.59,-10.82,-8.95,
69190,1661609418608,-0.8795,0.2418,0.1746,-1.82,5.6,-11.31,
69191,1661609418608,-0.7042,-0.035,-0.7615,-0.42,-3.11,-8.67,
69192,1661609418608,-0.7037,-0.2943,-0.1892,-7.42,10.0,-8.67,
69193,1661609418608,-0.8394,0.0177,-0.1164,-4.29,-16.14,-7.66,
69194,1661609418608,-0.9132,-0.1952,-0.5696,-4.51,-17.41,-6.31,
69195,1661609418608,-0.8018,-0.3583,-0.4617,-9.91,-10.89,-10.58,
69196,1661609418608,-1.0142,-0.368,-0.1384,-11.42,-23.07,-4.66,
69197,1661609418608,-1.0523,-0.4921,-0.2273,-9.42,-26.62,-7.76,
69198,1661609418608,-0.983,-0.515,-0.0344,-13.22,-12.16,-5.94,
69199,1661609418613,-1.0665,-0.848,0.3147,-21.81,-20.79,-2.29,
69200,1661609418613,-1.1412,-0.766,-0.0364,-21.5,-21.73,-3.93,
69201,1661609418613,-1.0328,-0.8671,0.4622,-22.08,-6.07,0.73,
69202,1661609418613,-1.2579,-0.9418,0.3147,-33.7,-11.56,1.72,
69203,1661609418613,-1.151,-0.7269,-0.1701,-41.08,-19.6,0.64,
69204,1661609418613,-1.2808,-0.9076,0.3308,-27.41,-5.99,3.83,
69205,1661609418613,-1.3531,-0.7479,0.3142,-30.09,-7.6,8.66,
69206,1661609418613,-1.2642,-0.7528,-0.2219,-41.89,-29.75,10.57,
69207,1661609418613,-1.2755,-0.5848,0.7732,-42.88,-13.52,5.82,
69208,1661609418613,-1.3551,-0.6439,0.5579,-36.2,-1.42,7.93,
69209,1661609418613,-1.2579,-0.4681,0.1922,-43.6,8.64,4.83,
69210,1661609418613,-1.2462,-0.2841,0.5974,-53.68,6.11,9.2,
69211,1661609418613,-1.4395,-0.4042,1.0257,-54.17,8.47,9.47,
69212,1661609418613,-1.4371,-0.161,0.387,-43.92,-1.34,9.65,
69213,1661609418613,-1.3512,-0.1102,0.4915,-43.72,20.74,8.39,
69214,1661609418613,-1.3648,0.2052,0.7068,-52.89,25.64,6.74,
69215,1661609418613,-1.3394,-0.0087,0.0349,-51.27,14.48,11.85,
69216,1661609418613,-1.2393,0.3634,0.8836,-46.39,13.13,7.84,
69217,1661609418613,-1.2877,0.3971,0.8933,-41.9,6.27,7.38,
69218,1661609418613,-1.2095,0.3409,0.0603,-39.6,3.48,12.77,
69219,1661609418613,-1.1837,0.3483,0.3904,-37.69,23.36,15.96,
69220,1661609418613,-1.2154,0.3976,0.9168,-43.9,37.91,9.93,
69221,1661609418613,-1.1842,0.549,-0.0451,-41.69,23.2,11.3,
69222,1661609418613,-1.1637,0.5309,0.0398,-34.7,22.17,7.01,
69223,1661609418613,-1.0245,0.465,0.4426,-31.59,35.11,14.67,
69224,1661609418613,-1.0435,0.6032,0.219,-33.8,36.81,11.12,
69225,1661609418613,-0.8687,0.6227,-0.6345,-31.79,25.06,10.57,
69226,1661609418613,-0.9073,0.6036,-0.1701,-23.91,13.63,9.29,
69227,1661609418613,-0.9864,0.8258,0.2083,-23.5,14.73,5.55,
69228,1661609418613,-0.8756,0.6832,-0.6384,-22.42,6.27,5.82,
69229,1661609418613,-0.8233,0.7633,-0.0617,-22.79,17.61,3.28,
69230,1661609418613,-0.7393,0.7658,0.5325,-16.3,23.87,8.2,
69231,1661609418613,-1.0054,0.7951,0.1384,-14.3,18.54,1.54,
69232,1661609418613,-0.7291,0.8746,-0.5339,-9.51,16.01,2.54,
69233,1661609418613,-0.9322,0.6564,0.2288,-9.19,22.34,7.29,
69234,1661609418613,-0.8341,1.0206,0.3411,-11.31,32.75,3.83,
69235,1661609418613,-0.6637,0.9659,-0.4778,-9.69,9.83,3.73,
69236,1661609418629,-0.5157,0.691,-1.0544,-4.81,17.61,-0.65,
69237,1661609418629,-0.6998,0.7374,-0.0339,0.79,9.91,-0.1,
69238,1661609418629,-0.566,0.7662,-0.5339,1.77,4.41,-2.02,
69239,1661609418629,-0.4835,0.6368,-1.0749,4.88,-7.6,-6.49,
69240,1661609418629,-0.5313,0.4269,-0.8308,-2.31,1.12,-6.84,
69241,1661609418629,-0.7745,0.379,-0.2576,-1.01,-9.53,-5.85,
69242,1661609418629,-0.6929,0.1969,-0.6013,2.8,0.28,-7.21,
69243,1661609418629,-0.5943,-0.0502,-0.4304,5.18,4.84,-4.48,
69244,1661609418629,-0.8033,-0.0111,-0.3147,-3.33,6.44,-6.49,
69245,1661609418629,-0.7281,-0.2015,-0.2209,-5.63,0.28,-11.59,
69246,1661609418629,-0.8214,-0.3881,-0.405,-4.4,-8.02,-4.2,
69247,1661609418629,-0.8878,-0.4613,-0.5041,-6.03,-16.98,-1.2,
69248,1661609418629,-0.8546,-0.5677,-0.6233,-13.81,-18.93,-7.02,
69249,1661609418629,-1.0255,-0.4657,0.3123,-14.3,-13.52,-7.02,
69250,1661609418629,-0.8687,-0.6717,-0.3689,-10.11,-41.52,-7.85,
69251,1661609418629,-1.0533,-0.8363,-0.5466,-14.91,-20.2,-5.57,
69252,1661609418629,-1.0435,-0.4877,0.9978,-22.1,-6.74,-3.29,
69253,1661609418629,-1.1842,-0.8065,-0.4309,-19.2,-21.13,2.18,
69254,1661609418629,-1.0953,-0.7089,-0.3796,-26.71,-18.76,3.83,
69255,1661609418629,-1.4,-0.5917,1.1414,-31.12,-4.71,7.56,
69256,1661609418629,-1.1012,-0.3959,-0.2742,-32.31,-25.86,5.64,
69257,1661609418629,-1.0596,-0.8309,-0.6892,-31.82,-17.83,8.66,
69258,1661609418629,-1.2828,-0.3798,1.2317,-31.62,-1.93,6.46,
69259,1661609418629,-1.21,-0.4955,-0.1399,-36.59,-17.32,10.48,
69260,1661609418629,-1.172,-0.5306,0.0476,-44.19,-10.39,-0.28,
69261,1661609418629,-1.3795,-0.5116,1.1253,-38.9,-6.57,-2.2,
69262,1661609418629,-1.3262,-0.4501,0.6521,-44.12,-2.94,0.64,
69263,1661609418629,-1.2198,-0.5233,0.3264,-45.2,1.71,-0.74,
69264,1661609418629,-1.255,-0.5839,0.5828,-49.08,10.0,-0.55,
69265,1661609418629,-1.3321,-0.3993,0.7883,-47.49,4.41,1.9,
69266,1661609418629,-1.3834,-0.2499,0.5789,-49.5,18.12,1.17,
69267,1661609418629,-1.1622,-0.4789,0.3289,-49.18,7.97,3.0,
69268,1661609418629,-1.4532,-0.2377,0.3811,-51.21,-2.87,3.18,
69269,1661609418645,-1.2691,0.0089,0.8128,-52.28,1.62,10.29,
69270,1661609418645,-1.2662,-0.0087,0.3006,-42.9,10.93,6.37,
69271,1661609418645,-1.1803,0.0436,0.1463,-45.8,23.27,15.22,
69272,1661609418647,-1.1827,0.1993,0.2708,-51.08,20.65,8.57,
69273,1661609418647,-1.0733,0.4952,0.6775,-50.71,33.68,14.67,
69274,1661609418647,-0.9957,0.4371,-0.1775,-39.8,15.66,12.03,
69275,1661609418647,-1.0577,0.6041,0.0642,-38.78,24.8,12.31,
69276,1661609418647,-1.1104,0.8781,0.7278,-41.1,25.56,8.02,
69277,1661609418647,-0.9161,0.7496,-0.176,-37.01,27.59,8.3,
69278,1661609418647,-0.9317,0.8336,-0.4831,-28.31,12.87,4.19,
69279,1661609418647,-1.0694,0.8239,0.2791,-29.21,28.26,6.56,
69280,1661609418647,-0.9888,1.0587,0.8196,-26.71,25.9,4.65,
69281,1661609418647,-0.8126,0.8317,-0.5105,-25.1,21.75,2.45,
69282,1661609418647,-0.8194,0.9406,0.242,-24.69,37.48,3.0,
69283,1661609418647,-0.8287,0.9122,0.4812,-20.22,34.95,3.73,
69284,1661609418647,-0.8863,0.799,-0.0574,-15.2,24.71,5.27,
69285,1661609418647,-0.7515,0.6876,-0.7082,-14.99,20.65,1.44,
69286,1661609418647,-0.8575,0.7169,-0.2087,-15.81,21.75,-0.74,
69287,1661609418647,-0.669,0.6915,-0.3762,-14.61,13.05,-1.93,
69288,1661609418647,-0.6363,0.5778,-0.8503,-6.2,13.29,1.17,
69289,1661609418647,-0.5015,0.5065,-0.6301,-5.7,10.17,-2.29,
69290,1661609418647,-0.7486,0.5275,-0.343,-7.71,6.53,-1.65,
69291,1661609418647,-0.65,0.4088,-0.4719,-6.32,-1.0,-3.74,
69292,1661609418647,-0.6773,0.3112,-0.6716,-4.99,-11.06,-0.1,
69293,1661609418647,-0.7745,0.4713,-0.2908,-3.51,8.81,-0.46,
69294,1661609418647,-0.6593,0.2697,0.0056,-3.51,11.95,-3.29,
69295,1661609418647,-0.6627,0.2784,-0.9783,-7.31,-4.04,-7.3,
69296,1661609418647,-0.5792,0.1403,-0.6804,-3.73,-11.82,-6.03,
69297,1661609418647,-0.815,0.2765,0.4509,-1.7,10.33,-4.48,
69298,1661609418647,-0.7105,0.15,-0.8742,-3.8,-3.87,-5.21,
69299,1661609418647,-0.7174,-0.2694,-1.4377,-10.81,-10.22,-4.57,
69300,1661609418647,-0.8067,-0.0228,0.0545,-7.01,-6.83,-11.31,
69301,1661609418647,-0.9425,-0.1171,0.0154,-6.73,-21.89,-8.4,
69302,1661609418647,-0.7686,-0.3461,-0.7849,-12.1,-23.16,-6.12,
69303,1661609418647,-0.9293,-0.368,0.0403,-17.7,-5.23,-4.66,
69304,1661609418647,-1.0587,-0.474,0.2273,-15.6,-17.41,-8.4,
69305,1661609418662,-0.9298,-0.5438,-0.4021,-16.91,-23.59,-6.93,
69306,1661609418662,-0.9991,-0.828,0.3455,-22.8,-8.19,-3.01,
69307,1661609418662,-1.1871,-0.6796,0.0349,-28.29,-19.6,-8.4,
69308,1661609418662,-1.0587,-0.8607,-0.0652,-25.82,-13.68,-3.38,
69309,1661609418662,-1.2491,-0.9354,0.4246,-26.29,-10.82,3.37,
69310,1661609418662,-1.2379,-0.6727,-0.1208,-39.69,-19.27,3.28,
69311,1661609418662,-1.1778,-0.9466,-0.071,-43.38,-29.32,3.92,
69312,1661609418662,-1.3238,-0.7743,0.6267,-33.51,-2.44,5.73,
69313,1661609418662,-1.3116,-0.7152,-0.1257,-38.18,-10.13,3.64,
69314,1661609418662,-1.316,-0.5189,0.5676,-48.59,-11.15,2.82,
69315,1661609418662,-1.3214,-0.6205,0.9285,-47.08,-15.8,6.56,
69316,1661609418662,-1.5738,-0.7299,0.407,-43.11,1.21,10.75,
69317,1661609418662,-1.3477,-0.2474,0.2449,-49.49,20.91,7.84,
69318,1661609418662,-1.4088,-0.2772,0.9915,-56.8,21.5,11.39,
69319,1661609418662,-1.3424,-0.1713,0.4597,-56.31,-8.36,5.09,
69320,1661609418662,-1.2613,-0.1112,0.1414,-47.69,2.05,6.65,
69321,1661609418662,-1.2857,0.212,1.0281,-47.69,30.38,5.02,
69322,1661609418662,-1.3184,0.0499,0.1795,-46.41,21.58,11.21,
69323,1661609418662,-1.3575,0.0568,0.1253,-54.29,15.49,7.47,
69324,1661609418662,-1.2965,0.339,0.9392,-52.78,9.4,8.39,
69325,1661609418662,-1.2369,0.3375,0.5217,-46.01,2.64,9.93,
69326,1661609418662,-1.1695,0.3624,0.2317,-41.6,10.33,5.82,
69327,1661609418662,-1.1871,0.3986,0.8377,-42.0,34.78,8.94,
69328,1661609418662,-1.1134,0.4005,0.7454,-43.6,38.84,5.73,
69329,1661609418662,-1.171,0.4713,-0.1072,-47.79,30.12,5.92,
69330,1661609418662,-1.0787,0.4782,0.2049,-39.8,26.07,5.18,
69331,1661609418662,-1.0509,0.588,0.2625,-33.3,23.03,10.66,
69332,1661609418662,-0.898,0.6178,-0.5305,-29.59,21.41,8.2,
69333,1661609418662,-0.899,0.5504,-0.2356,-31.89,22.51,9.29,
69334,1661609418677,-1.0045,0.8375,0.3811,-32.31,29.29,3.18,
69335,1661609418677,-0.8223,0.8326,0.0506,-29.1,8.99,5.64,
69336,1661609418677,-0.8595,0.6764,-0.6135,-23.79,9.16,6.83,
69337,1661609418677,-0.7442,0.7975,0.4197,-22.79,24.97,5.55,
69338,1661609418678,-0.9835,0.7599,0.2151,-18.71,25.82,11.3,
69339,1661609418678,-0.772,0.9083,-0.5061,-14.99,23.53,4.01,
69340,1661609418678,-0.9019,0.6823,-0.0305,-14.19,24.71,7.75,
69341,1661609418678,-0.734,0.7853,0.3342,-15.2,32.67,0.64,
69342,1661609418678,-0.6558,0.9127,-0.3791,-14.82,12.96,2.09,
69343,1661609418678,-0.5274,0.7213,-0.9304,-11.6,15.83,-1.65,
69344,1661609418678,-0.6387,0.7438,-0.3699,-8.59,5.6,-3.65,
69345,1661609418678,-0.7452,0.6735,-0.4416,-6.21,5.6,-0.74,
69346,1661609418678,-0.5631,0.7076,-0.7434,-1.33,1.21,-6.22,
69347,1661609418678,-0.628,0.3414,-0.571,-2.11,-1.84,-3.83,
69348,1661609418678,-0.647,0.275,-0.2947,-7.82,3.57,-3.93,
69349,1661609418678,-0.6822,0.2467,-0.5784,-4.72,-2.18,-1.65,
69350,1661609418678,-0.6143,-0.0809,-0.6819,-2.4,1.54,-3.47,
69351,1661609418678,-0.8053,0.0011,-0.2971,-1.93,-4.3,-5.39,
69352,1661609418678,-0.7213,-0.1293,-0.2248,-8.52,0.35,-6.12,
69353,1661609418678,-0.7828,-0.411,-0.5456,-12.91,-13.42,-6.4,
69354,1661609418678,-0.877,-0.4706,-0.3254,-11.31,-15.21,-4.75,
69355,1661609418678,-0.9884,-0.5384,-0.4026,-15.31,-26.29,-6.66,
69356,1661609418678,-1.0411,-0.4398,0.137,-21.21,-15.12,-11.49,
69357,1661609418678,-0.9732,-0.7157,-0.2732,-13.71,-34.41,-6.58,
69358,1661609418678,-1.0235,-0.6156,-0.0227,-18.53,-13.18,-1.74,
69359,1661609418678,-0.9371,-0.5267,0.3875,-31.19,-7.34,-3.47,
69360,1661609418678,-0.9957,-0.7137,-0.3367,-27.39,-15.88,-2.02,
69361,1661609418678,-1.0426,-0.6307,-0.0603,-25.61,-25.36,2.91,
69362,1661609418678,-1.1749,-0.454,0.6712,-38.59,-5.14,1.9,
69363,1661609418678,-1.0938,-0.3514,0.1658,-36.0,-20.7,-2.02,
69364,1661609418678,-1.0968,-0.7562,-0.7224,-35.5,-16.22,1.81,
69365,1661609418678,-1.2281,-0.4872,0.9256,-36.81,-3.2,1.54,
69366,1661609418678,-1.1612,-0.5018,0.1936,-41.61,-13.18,6.37,
69367,1661609418678,-1.2008,-0.5424,-0.1448,-45.2,-10.89,2.18,
69368,1661609418678,-1.3912,-0.5018,1.1414,-43.69,-8.02,4.65,
69369,1661609418678,-1.3883,-0.5424,0.8303,-45.29,0.1,5.09,
69370,1661609418678,-1.2725,-0.516,0.1995,-46.88,7.63,5.73,
69371,1661609418678,-1.276,-0.5961,0.8445,-52.81,18.12,4.47,
69372,1661609418678,-1.3311,-0.4481,0.9177,-53.49,7.04,5.37,
69373,1661609418694,-1.4654,-0.2684,0.3601,-52.59,6.2,9.47,
69374,1661609418694,-1.2315,-0.4427,0.1907,-49.61,5.6,10.2,
69375,1661609418694,-1.4386,-0.2435,0.4319,-57.0,5.77,7.47,
69376,1661609418694,-1.2613,0.0519,0.6204,-60.0,10.76,11.12,
69377,1661609418694,-1.1803,0.0026,0.1126,-52.01,10.76,11.85,
69378,1661609418694,-1.0142,0.1027,0.2566,-45.98,21.0,12.77,
69379,1661609418694,-1.0948,0.2111,0.4246,-49.38,15.08,13.48,
69380,1661609418694,-1.1412,0.5138,0.6189,-54.87,15.92,8.85,
69381,1661609418694,-1.0679,0.4674,-0.0036,-47.0,4.41,12.68,
69382,1661609418694,-1.1656,0.5275,0.4519,-40.0,26.32,12.03,
69383,1661609418694,-1.2227,0.8449,0.8103,-40.2,30.46,13.03,
69384,1661609418694,-0.9854,0.7877,-0.0154,-43.08,26.07,11.67,
69385,1661609418694,-0.898,0.8463,0.0003,-35.6,21.0,12.77,
69386,1661609418694,-0.9898,0.7985,0.2869,-29.9,34.11,14.4,
69387,1661609418694,-0.9244,0.9884,0.5906,-32.09,36.98,10.66,
69388,1661609418694,-0.774,0.8737,-0.487,-33.7,21.24,10.11,
69389,1661609418694,-0.816,0.9352,-0.1311,-28.81,27.0,5.82,
69390,1661609418694,-0.8189,0.8991,0.2547,-20.01,24.97,4.56,
69391,1661609418694,-0.7037,0.6178,-0.4133,-18.79,23.11,2.27,
69392,1661609418694,-0.71,0.7018,-0.5154,-17.61,19.05,5.73,
69393,1661609418694,-0.8385,0.632,-0.0686,-17.0,18.12,2.45,
69394,1661609418694,-0.5982,0.5973,-0.1531,-19.0,18.71,0.82,
69395,1661609418694,-0.6431,0.5382,-0.6345,-14.71,19.98,0.91,
69396,1661609418694,-0.4849,0.5299,-0.5578,-14.91,21.34,0.36,
69397,1661609418694,-0.71,0.609,-0.4753,-11.51,9.91,-5.67,
69398,1661609418694,-0.65,0.4249,-0.5032,-8.72,-0.48,-5.39,
69399,1661609418694,-0.7066,0.3898,-0.7629,-5.91,-13.09,-4.93,
69400,1661609418694,-0.6099,0.4684,-0.1604,-7.22,3.15,-4.75,
69401,1661609418694,-0.5606,0.3234,-0.1765,-10.21,2.98,-5.03,
69402,1661609418694,-0.6285,0.2701,-0.8122,-10.11,-2.18,-5.94,
69403,1661609418694,-0.5782,0.1408,-0.7004,-3.01,-8.02,-6.03,
69404,1661609418694,-0.8858,0.2584,0.4656,-3.9,5.1,-6.31,
69405,1661609418694,-0.754,0.212,-0.4358,-8.61,-11.15,-8.76,
69406,1661609418709,-0.7799,-0.2601,-1.0788,-12.21,-10.22,-5.85,
69407,1661609418709,-0.8585,0.0778,0.2068,-14.71,-0.48,-11.68,
69408,1661609418709,-0.8399,-0.3212,-0.3537,-16.21,-16.9,-11.31,
69409,1661609418709,-0.7857,-0.2123,-0.8493,-14.41,-28.15,-7.39,
69410,1661609418709,-1.0059,-0.4247,0.1765,-12.81,-7.43,-5.3,
69411,1661609418709,-1.024,-0.5087,0.138,-20.8,-14.36,-5.67,
69412,1661609418709,-1.0128,-0.7176,-0.55,-22.62,-34.07,-4.2,
69413,1661609418709,-1.0191,-0.869,0.5574,-25.59,-8.27,-8.21,
69414,1661609418714,-1.1886,-0.701,0.0457,-32.6,-17.48,-6.49,
69415,1661609418714,-1.108,-0.8661,-0.2805,-33.28,-16.64,-3.19,
69416,1661609418714,-1.2393,-0.9423,0.3157,-32.0,-10.72,0.64,
69417,1661609418714,-1.2471,-0.6366,0.3772,-43.48,-19.01,2.91,
69418,1661609418714,-1.1422,-0.9017,-0.4162,-44.01,-26.71,3.28,
69419,1661609418714,-1.2686,-0.7123,0.5296,-40.3,4.34,4.01,
69420,1661609418714,-1.2027,-0.7113,0.1726,-38.21,-14.36,2.73,
69421,1661609418714,-1.2535,-0.5555,0.0257,-51.09,-20.11,5.82,
69422,1661609418714,-1.2818,-0.5507,0.905,-52.6,-24.26,5.73,
69423,1661609418714,-1.3477,-0.6156,0.5247,-45.99,-1.17,13.94,
69424,1661609418714,-1.2999,-0.2015,0.4778,-53.0,12.96,11.21,
69425,1661609418714,-1.3453,-0.3773,0.8792,-59.99,24.46,12.4,
69426,1661609418714,-1.3927,-0.1175,0.406,-58.6,-5.47,7.56,
69427,1661609418720,-1.276,-0.0507,0.2996,-50.21,9.4,11.67,
69428,1661609418720,-1.2989,0.153,0.8645,-50.11,24.13,9.38,
69429,1661609418720,-1.2745,0.0968,0.3225,-54.89,17.95,7.56,
69430,1661609418720,-1.275,0.2194,0.5042,-59.89,15.83,7.56,
69431,1661609418720,-1.2232,0.3473,0.7215,-53.1,13.72,7.2,
69432,1661609418720,-1.1558,0.2809,0.2727,-47.47,10.09,9.65,
69433,1661609418720,-1.1407,0.317,0.2527,-42.58,18.97,15.13,
69434,1661609418720,-1.1671,0.3756,0.5916,-49.2,33.85,11.3,
69435,1661609418720,-1.0523,0.4298,0.3123,-54.19,31.82,9.47,
69436,1661609418720,-1.0762,0.4508,-0.0935,-46.88,22.43,7.47,
69437,1661609418720,-0.9337,0.5314,0.2527,-39.01,28.69,6.83,
69438,1661609418720,-0.9805,0.6803,-0.0076,-34.29,21.58,12.58,
69439,1661609418720,-0.772,0.5333,-0.3581,-35.69,21.08,6.28,
69440,1661609418720,-0.8682,0.4957,-0.2663,-31.79,10.67,7.56,
69441,1661609418720,-1.0172,0.7814,0.2717,-30.31,20.07,4.83,
69442,1661609418720,-0.8028,0.7423,-0.0998,-30.51,9.83,4.47,
69443,1661609418720,-0.8082,0.7985,-0.1492,-31.09,23.36,1.54,
69444,1661609418720,-0.7266,0.7814,0.3142,-27.21,29.12,0.18,
69445,1661609418720,-0.8248,0.8126,0.0823,-22.89,32.08,0.18,
69446,1661609418720,-0.7628,0.9367,-0.1311,-21.09,24.46,-2.11,
69447,1661609418720,-0.8302,0.7496,-0.4099,-19.6,17.52,-2.29,
69448,1661609418720,-0.7594,0.9533,0.0159,-20.62,22.68,-6.66,
69449,1661609418720,-0.6065,0.818,-0.7034,-17.0,9.57,-5.12,
69450,1661609418720,-0.5553,0.7643,-0.6594,-11.51,16.68,-7.02,
69451,1661609418720,-0.6534,0.8131,-0.4592,-8.93,5.01,-3.65,
69452,1661609418720,-0.6871,0.6334,-0.5813,-6.29,3.48,-7.3,
69453,1661609418720,-0.5274,0.4967,-0.6179,-5.31,-2.61,-6.75,
69454,1661609418720,-0.7115,0.3893,-0.5295,-8.9,-1.0,-7.94,
69455,1661609418720,-0.6261,0.2804,-0.218,-8.81,10.5,-11.86,
69456,1661609418720,-0.6851,0.09,-0.7497,-5.83,0.1,-8.12,
69457,1661609418720,-0.6431,-0.1473,-0.7663,-8.18,-2.67,-7.01,
69458,1661609418720,-0.9,0.0001,-0.1911,-8.61,-13.18,-10.14,
69459,1661609418720,-0.6241,-0.2015,-0.4885,-11.8,-14.78,-7.57,
69460,1661609418720,-0.7735,-0.4999,-0.7566,-14.41,-14.02,-4.84,
69461,1661609418735,-0.8189,-0.4447,-0.1018,-20.31,-18.76,-8.58,
69462,1661609418735,-0.9849,-0.5277,-0.3337,-17.61,-32.64,-5.48,
69463,1661609418735,-0.9644,-0.5243,0.0403,-17.09,-11.23,-2.11,
69464,1661609418735,-1.1397,-0.701,0.0437,-26.2,-19.77,-0.37,
69465,1661609418735,-0.9781,-0.516,0.1165,-27.3,-20.28,-6.22,
69466,1661609418735,-1.0494,-0.641,-0.0867,-22.72,-14.19,-3.74,
69467,1661609418735,-0.9698,-0.5975,-0.1609,-33.28,-8.79,-1.01,
69468,1661609418735,-1.1353,-0.5389,0.0398,-39.01,-19.27,1.35,
69469,1661609418735,-1.0777,-0.3973,0.2381,-34.11,-17.74,-1.65,
69470,1661609418735,-1.0992,-0.5883,-0.4065,-34.6,-30.51,6.37,
69471,1661609418735,-1.1724,-0.5487,0.593,-42.0,-16.98,3.28,
69472,1661609418735,-1.2965,-0.4623,0.866,-45.4,-17.74,-2.83,
69473,1661609418735,-1.2125,-0.6053,0.0701,-43.89,-15.88,-1.74,
69474,1661609418735,-1.3092,-0.4652,0.3826,-46.8,-6.5,1.09,
69475,1661609418735,-1.4522,-0.5194,1.1458,-52.3,-0.41,1.35,
69476,1661609418735,-1.3638,-0.5594,0.6321,-49.9,-1.34,2.73,
69477,1661609418735,-1.3365,-0.5526,0.1463,-50.91,1.71,2.91,
69478,1661609418735,-1.2481,-0.433,0.534,-56.29,13.89,8.66,
69479,1661609418735,-1.4263,-0.2718,0.3572,-58.89,11.6,2.45,
69480,1661609418735,-1.3468,-0.3187,0.1116,-53.07,6.44,9.84,
69481,1661609418735,-1.2686,-0.3866,0.0408,-50.39,-6.33,5.82,
69482,1661609418735,-1.3848,-0.097,0.6131,-53.2,3.57,8.48,
69483,1661609418735,-1.2291,-0.0282,0.4954,-56.28,-0.65,13.48,
69484,1661609418747,-1.1666,-0.0033,0.2464,-55.61,9.66,9.84,
69485,1661609418747,-1.1153,0.1583,0.7722,-53.29,12.7,12.03,
69486,1661609418747,-1.2579,0.4049,0.7957,-53.58,21.0,11.67,
69487,1661609418747,-1.2799,0.5455,0.5784,-50.39,13.22,9.38,
69488,1661609418747,-1.2545,0.4523,0.324,-49.79,20.65,10.29,
69489,1661609418747,-1.1622,0.7321,0.802,-47.09,29.03,10.29,
69490,1661609418747,-1.1051,0.8058,0.1311,-40.18,29.71,7.29,
69491,1661609418747,-0.8721,0.9347,0.033,-36.4,35.54,7.38,
69492,1661609418747,-0.8814,0.8947,-0.0036,-37.69,20.83,5.27,
69493,1661609418747,-0.9151,0.903,0.1516,-37.39,16.09,5.64,
69494,1661609418747,-0.9298,0.923,0.1643,-30.99,15.75,7.93,
69495,1661609418747,-0.9005,0.8258,-0.2224,-27.99,20.48,6.74,
69496,1661609418747,-0.9049,0.9518,-0.0696,-27.3,33.34,3.0,
69497,1661609418747,-0.8145,0.7262,0.0335,-26.02,33.42,0.45,
69498,1661609418747,-0.6436,0.6539,-0.2307,-23.3,34.7,5.02,
69499,1661609418747,-0.7579,0.7184,-0.4812,-17.51,27.68,-0.0,
69500,1661609418747,-0.6041,0.6373,-0.3484,-17.4,26.83,2.91,
69501,1661609418747,-0.5631,0.6134,-0.407,-15.89,16.59,-1.65,
69502,1661609418747,-0.6544,0.4826,-0.6633,-19.11,3.91,-1.01,
69503,1661609418747,-0.5885,0.547,-0.4787,-11.11,-1.58,-0.83,
69504,1661609418747,-0.796,0.5695,-0.5476,-8.72,1.21,1.35,
69505,1661609418747,-0.6842,0.3185,-0.384,-10.72,1.62,-5.94,
69506,1661609418747,-0.7296,0.4493,-0.1101,-13.71,4.08,-3.65,
69507,1661609418747,-0.4967,0.3004,-0.1457,-16.21,5.94,-7.3,
69508,1661609418747,-0.6759,0.1891,-0.4514,-10.91,4.67,-4.57,
69509,1661609418747,-0.6627,0.3463,-0.614,-9.6,5.18,-6.49,
69510,1661609418747,-0.8389,0.1491,-0.1892,-11.63,-0.82,-7.57,
69511,1661609418747,-0.6949,0.3615,-0.2844,-9.51,-0.58,-8.4,
69512,1661609418747,-0.713,-0.0145,-1.0432,-10.01,-13.85,-3.56,
69513,1661609418747,-0.7677,0.0182,-0.4455,-18.99,-19.01,-11.13,
69514,1661609418747,-0.7896,-0.0673,-0.282,-13.02,-21.97,-5.21,
69515,1661609418747,-0.8355,-0.4056,-0.5383,-15.2,-11.49,-11.95,
69516,1661609418747,-0.8702,-0.2484,-0.1951,-21.29,-25.86,-7.57,
69517,1661609418747,-0.9757,-0.5712,0.3826,-23.88,-11.91,-10.23,
69518,1661609418747,-0.9068,-0.5995,-0.2673,-20.1,-5.73,-7.39,
69519,1661609418763,-1.0264,-0.8319,-0.2107,-32.2,-8.6,-5.67,
69520,1661609418763,-1.1153,-0.7006,0.4216,-32.58,-18.08,-4.84,
69521,1661609418763,-1.1095,-0.8055,-0.5193,-30.2,-23.33,2.54,
69522,1661609418763,-1.1671,-0.9549,-0.1277,-41.81,-22.06,-2.29,
69523,1661609418763,-1.2413,-0.6566,0.5291,-39.8,-15.62,1.72,
69524,1661609418763,-1.0596,-0.8812,-0.2805,-37.59,-26.62,1.99,
69525,1661609418763,-1.2008,-0.7513,0.3342,-49.67,-23.59,-0.83,
69526,1661609418763,-1.149,-0.7006,0.8269,-53.29,-22.99,5.46,
69527,1661609418763,-1.2984,-0.6483,0.2859,-43.4,-5.14,7.56,
69528,1661609418763,-1.316,-0.4706,0.4646,-47.18,7.54,8.75,
69529,1661609418763,-1.5113,-0.5394,0.7171,-54.78,-1.0,12.4,
69530,1661609418763,-1.2945,-0.2909,0.7063,-60.18,-0.91,8.02,
69531,1661609418763,-1.2789,-0.2118,0.2449,-56.68,-5.23,12.84,
69532,1661609418763,-1.1685,-0.2006,0.282,-51.78,11.69,9.56,
69533,1661609418763,-1.3214,0.0084,0.5813,-51.2,7.21,9.29,
69534,1661609418763,-1.3321,0.0309,0.7312,-60.08,4.17,7.84,
69535,1661609418763,-1.3922,0.0451,0.5008,-59.48,-7.0,11.12,
69536,1661609418763,-1.3487,0.048,0.3362,-57.48,2.48,12.4,
69537,1661609418763,-1.3853,0.3068,1.0935,-52.89,20.65,9.1,
69538,1661609418763,-1.2262,0.2301,0.4773,-55.18,30.12,13.76,
69539,1661609418763,-1.0919,0.2858,0.2547,-53.79,30.55,10.48,
69540,1661609418763,-1.1661,0.4557,0.5559,-52.51,30.38,8.66,
69541,1661609418763,-1.1798,0.4533,0.3914,-49.79,26.49,6.65,
69542,1661609418763,-1.1007,0.4591,-0.2058,-43.6,29.45,7.01,
69543,1661609418763,-1.0806,0.4884,-0.0359,-43.09,23.87,8.11,
69544,1661609418763,-1.043,0.6076,0.1687,-42.9,14.56,7.65,
69545,1661609418763,-1.0396,0.5992,-0.0061,-39.01,11.69,7.84,
69546,1661609418763,-0.8839,0.5016,0.0388,-34.61,8.81,5.09,
69547,1661609418763,-1.0299,0.5651,0.2068,-36.11,13.29,6.56,
69548,1661609418763,-1.0299,0.7623,0.5193,-38.11,22.77,4.56,
69549,1661609418763,-0.9879,0.6808,0.1355,-35.01,28.6,3.64,
69550,1661609418763,-0.8302,0.8219,0.0618,-29.8,36.3,3.18,
69551,1661609418763,-0.9224,0.8102,0.0027,-25.59,29.36,0.09,
69552,1661609418763,-0.7335,0.9528,-0.0432,-23.7,31.22,-2.83,
69553,1661609418763,-0.7418,0.8844,-0.3713,-19.09,8.73,-1.84,
69554,1661609418779,-0.8043,0.775,-0.7649,-17.11,17.87,-3.93,
69555,1661609418779,-0.6348,0.9567,-0.2639,-18.8,13.13,-2.57,
69556,1661609418779,-0.6153,0.6412,-0.6111,-18.02,14.06,-4.29,
69557,1661609418779,-0.6846,0.8224,-0.5027,-11.89,3.57,-0.74,
69558,1661609418779,-0.7471,0.6359,-0.4949,-11.31,0.95,-1.38,
69559,1661609418779,-0.648,0.6305,-0.2263,-13.6,12.79,-2.2,
69560,1661609418779,-0.6451,0.4201,-0.5964,-9.51,15.92,-4.75,
69561,1661609418783,-0.6012,0.277,-0.3728,-8.21,18.54,-5.3,
69562,1661609418783,-0.6134,0.3102,-0.2707,-11.71,1.54,-6.75,
69563,1661609418783,-0.6451,-0.0062,-0.9265,-7.4,-9.46,-3.74,
69564,1661609418783,-0.7525,-0.1088,-0.739,-7.62,-13.94,-1.74,
69565,1661609418783,-0.8995,-0.038,-0.052,-15.2,-7.17,-7.66,
69566,1661609418783,-0.6422,-0.4344,-0.6775,-16.93,-30.09,-10.5,
69567,1661609418783,-0.8394,-0.4354,-0.4509,-18.02,-16.48,-8.95,
69568,1661609418783,-0.8057,-0.4842,0.2078,-17.61,-10.82,-4.02,
69569,1661609418783,-0.921,-0.5609,-0.2253,-26.6,-12.25,-2.57,
69570,1661609418783,-0.8741,-0.5038,0.0471,-31.6,-32.8,-0.1,
69571,1661609418783,-1.0328,-0.6239,0.0379,-22.5,-8.43,1.09,
69572,1661609418783,-0.8702,-0.4271,-0.199,-26.81,-7.43,4.28,
69573,1661609418783,-1.0679,-0.6786,-0.2458,-36.4,-10.22,2.73,
69574,1661609418783,-1.1119,-0.5555,-0.2409,-34.32,-38.63,-0.83,
69575,1661609418783,-1.2647,-0.475,0.0764,-29.68,-24.93,-0.37,
69576,1661609418783,-1.1973,-0.5214,0.1931,-38.58,-23.33,-0.46,
69577,1661609418783,-1.2164,-0.6693,-0.1091,-43.09,-27.29,-6.22,
69578,1661609418783,-1.2232,-0.5204,0.8245,-44.57,-2.1,3.64,
69579,1661609418783,-1.2061,-0.5336,0.3172,-46.59,0.95,2.45,
69580,1661609418783,-1.3004,-0.5677,0.0247,-51.3,-3.37,4.92,
69581,1661609418783,-1.3336,-0.495,0.5076,-49.9,-2.44,0.64,
69582,1661609418783,-1.4073,-0.4764,0.6341,-49.31,-1.42,5.73,
69583,1661609418783,-1.2945,-0.453,0.0872,-49.49,-0.07,8.75,
69584,1661609418783,-1.254,-0.5419,0.0833,-57.58,3.24,8.66,
69585,1661609418783,-1.2921,-0.3876,0.4636,-60.18,-2.18,10.75,
69586,1661609418783,-1.4698,-0.3417,0.4646,-56.29,-12.25,8.11,
69587,1661609418783,-1.3062,-0.3954,0.5662,-51.69,-13.09,11.94,
69588,1661609418783,-1.4542,-0.3182,0.6633,-60.58,-2.35,16.69,
69589,1661609418783,-1.3712,-0.078,1.1336,-64.78,14.48,15.59,
69590,1661609418783,-1.3121,-0.0834,0.5925,-58.38,15.41,14.95,
69591,1661609418783,-1.1734,0.1515,0.6716,-52.8,24.97,12.77,
69592,1661609418783,-1.3507,0.2789,0.6458,-54.28,14.65,13.03,
69593,1661609418783,-1.2506,0.5548,0.2932,-52.71,19.55,10.48,
69594,1661609418798,-1.2012,0.547,0.1145,-47.79,16.59,9.75,
69595,1661609418798,-1.0802,0.7448,0.3054,-45.0,28.02,10.02,
69596,1661609418798,-1.1881,0.7628,0.1497,-41.69,17.11,6.83,
69597,1661609418798,-1.0924,0.7062,-0.0115,-44.3,27.09,8.94,
69598,1661609418798,-0.9449,0.8522,0.3089,-39.28,25.47,7.2,
69599,1661609418798,-0.96,0.8204,-0.0076,-36.7,27.26,8.39,
69600,1661609418798,-0.9234,0.9044,0.3084,-34.78,33.08,3.83,
69601,1661609418798,-0.9088,0.8556,0.0686,-33.68,29.96,3.73,
69602,1661609418798,-0.8389,0.9074,-0.2409,-33.7,28.69,3.55,
69603,1661609418798,-0.8638,0.8903,-0.1853,-25.68,32.92,2.09,
69604,1661609418798,-0.835,0.7184,-0.1067,-18.1,32.32,0.91,
69605,1661609418803,-0.7432,0.6588,-0.3225,-17.0,16.51,1.54,
69606,1661609418803,-0.8487,0.6115,-0.467,-20.89,0.78,-2.57,
69607,1661609418803,-0.5806,0.5792,-0.2126,-23.2,6.78,-0.65,
69608,1661609418803,-0.7198,0.4816,-0.3201,-18.99,11.36,-0.92,
69609,1661609418803,-0.6129,0.4972,-0.2097,-16.41,22.68,-0.65,
69610,1661609418803,-0.8009,0.5509,-0.3205,-17.0,2.14,-0.55,
69611,1661609418803,-0.775,0.4288,-0.3977,-14.71,-0.82,-0.46,
69612,1661609418803,-0.8355,0.4171,-0.3161,-13.49,2.14,-3.74,
69613,1661609418803,-0.7208,0.5421,-0.2024,-12.1,17.02,-6.66,
69614,1661609418803,-0.6319,0.2697,-0.8738,-13.31,-2.18,-7.48,
69615,1661609418803,-0.6217,0.3937,-0.8323,-14.3,-5.83,-9.59,
69616,1661609418803,-0.8057,0.2111,-0.2781,-6.29,-7.5,-4.84,
69617,1661609418803,-0.6012,0.2057,-0.4924,-7.11,-2.77,-5.94,
69618,1661609418803,-0.7105,-0.0692,-0.8542,-11.22,-18.08,-6.66,
69619,1661609418803,-0.9053,-0.0492,0.0789,-21.9,-7.26,-6.93,
69620,1661609418803,-0.7789,-0.1215,-0.3967,-18.91,-19.94,-3.74,
69621,1661609418803,-0.8941,-0.4208,-0.4245,-20.41,-12.33,-0.92,
69622,1661609418803,-0.9625,-0.1693,0.2556,-21.11,-9.62,-8.58,
69623,1661609418803,-1.005,-0.3138,0.0418,-21.0,-11.99,-5.48,
69624,1661609418803,-0.8917,-0.6356,-0.3567,-23.99,-12.33,-11.77,
69625,1661609418803,-0.9512,-0.5482,-0.3318,-28.89,-13.59,-7.12,
69626,1661609418803,-0.963,-0.8417,-0.0227,-31.89,-11.06,-6.03,
69627,1661609418803,-1.1119,-0.7396,-0.1506,-33.39,-31.28,-0.19,
69628,1661609418803,-1.0636,-0.9383,-0.2844,-36.21,-29.84,2.36,
69629,1661609418803,-1.3814,-0.827,0.3748,-41.69,-25.1,4.37,
69630,1661609418803,-1.2637,-0.7113,0.5217,-50.48,-29.16,7.56,
69631,1661609418803,-1.2764,-0.9593,-0.1741,-46.7,-18.93,10.84,
69632,1661609418803,-1.2818,-0.5565,0.7039,-47.29,3.57,2.18,
69633,1661609418803,-1.4058,-0.6473,0.6467,-48.31,-21.73,3.37,
69634,1661609418803,-1.2525,-0.5292,0.0921,-49.49,-18.17,-0.19,
69635,1661609418803,-1.3604,-0.4711,0.3987,-48.37,0.61,5.37,
69636,1661609418803,-1.295,-0.2577,0.8997,-56.98,16.42,0.73,
69637,1661609418803,-1.2183,-0.2689,0.0589,-56.68,1.38,4.1,
69638,1661609418819,-1.3179,-0.4237,-0.2336,-54.49,-3.37,8.02,
69639,1661609418819,-1.3609,-0.1107,0.6389,-56.89,-9.88,10.39,
69640,1661609418819,-1.3746,0.0841,0.9241,-59.48,9.07,11.3,
69641,1661609418819,-1.2711,0.0045,0.1922,-57.29,12.45,10.94,
69642,1661609418819,-1.3028,0.1207,0.511,-58.38,20.57,10.75,
69643,1661609418819,-1.3878,0.3961,1.1043,-54.68,20.83,10.2,
69644,1661609418819,-1.1661,0.2399,0.0838,-47.92,13.55,10.29,
69645,1661609418819,-1.086,0.32,0.2927,-46.38,25.56,14.67,
69646,1661609418819,-1.1803,0.3927,0.6497,-48.1,27.16,12.68,
69647,1661609418819,-1.2174,0.4244,0.2722,-49.09,10.09,13.03,
69648,1661609418819,-1.0767,0.3781,-0.1174,-45.08,13.39,17.31,
69649,1661609418826,-1.1749,0.441,0.3806,-46.01,18.79,17.95,
69650,1661609418826,-1.022,0.5919,0.3172,-46.19,18.12,15.31,
69651,1661609418826,-1.0059,0.5519,0.2215,-41.0,17.11,12.84,
69652,1661609418826,-0.8209,0.5602,0.26,-36.11,17.87,9.65,
69653,1661609418826,-1.0479,0.6701,0.2146,-34.6,14.48,9.29,
69654,1661609418826,-1.0308,0.816,0.2932,-37.39,23.44,9.38,
69655,1661609418826,-0.9498,0.7189,0.072,-31.21,24.2,6.83,
69656,1661609418826,-0.8355,0.9098,-0.196,-27.09,30.46,3.37,
69657,1661609418826,-0.8468,0.881,-0.1745,-23.3,23.79,4.56,
69658,1661609418826,-0.6788,0.9513,-0.0285,-25.3,23.79,0.64,
69659,1661609418826,-0.7086,0.7267,-0.7336,-17.61,2.14,1.17,
69660,1661609418826,-0.8653,0.7208,-0.7165,-23.41,10.17,-1.1,
69661,1661609418826,-0.7388,1.007,0.0452,-20.01,23.36,0.91,
69662,1661609418826,-0.6075,0.6261,-0.5417,-19.18,16.94,-2.02,
69663,1661609418826,-0.6451,0.7872,-0.51,-14.71,13.39,-4.93,
69664,1661609418826,-0.7379,0.7277,-0.2844,-11.01,6.61,-3.56,
69665,1661609418826,-0.671,0.652,-0.4333,-11.49,11.86,-9.86,
69666,1661609418826,-0.5689,0.4054,-0.7742,-11.51,6.61,-8.21,
69667,1661609418826,-0.5489,0.2252,-0.3332,-8.09,14.39,-9.13,
69668,1661609418826,-0.6241,0.2477,-0.2253,-7.89,1.79,-11.31,
69669,1661609418826,-0.7379,-0.0292,-0.8884,-7.91,-15.97,-8.95,
69670,1661609418826,-0.7384,-0.2074,-0.7395,-6.81,-15.29,-6.58,
69671,1661609418826,-0.9307,-0.038,0.1101,-11.31,-1.34,-8.58,
69672,1661609418826,-0.6275,-0.4379,-0.5212,-17.63,-19.77,-4.29,
69673,1661609418826,-0.8101,-0.3895,-0.4607,-24.01,-16.55,-7.66,
69674,1661609418826,-0.7428,-0.412,0.2112,-22.1,-21.97,-3.65,
69675,1661609418826,-0.901,-0.5233,-0.279,-20.79,-13.18,-6.58,
69676,1661609418826,-0.8521,-0.4701,-0.1252,-23.9,-19.94,-3.74,
69677,1661609418826,-1.0465,-0.62,-0.0222,-27.0,-20.7,-3.1,
69678,1661609418826,-0.9405,-0.371,-0.0735,-26.72,-15.21,-4.29,
69679,1661609418826,-1.0772,-0.6913,-0.3586,-33.8,-10.56,-2.2,
69680,1661609418826,-1.0924,-0.6151,-0.2908,-33.21,-32.47,2.09,
69681,1661609418826,-1.2384,-0.472,0.2215,-33.5,-16.64,4.92,
69682,1661609418826,-1.2218,-0.5067,0.2395,-42.41,-23.83,3.64,
69683,1661609418826,-1.1407,-0.6547,-0.3171,-48.48,-27.39,4.92,
69684,1661609418841,-1.1925,-0.5101,0.7166,-40.39,-1.17,1.26,
69685,1661609418841,-1.1944,-0.4701,0.3704,-40.41,1.79,-1.56,
69686,1661609418841,-1.2393,-0.5609,-0.0119,-50.17,-5.83,-2.11,
69687,1661609418843,-1.3438,-0.5316,0.6653,-48.68,-17.15,2.54,
69688,1661609418843,-1.4303,-0.5326,0.7244,-42.7,-10.56,4.56,
69689,1661609418843,-1.3599,-0.5106,0.2566,-49.38,-2.61,6.19,
69690,1661609418843,-1.3209,-0.5702,0.2937,-59.41,6.53,7.11,
69691,1661609418843,-1.3043,-0.4086,0.5144,-61.01,-3.03,8.85,
69692,1661609418843,-1.4561,-0.2997,0.5584,-57.39,-7.85,8.94,
69693,1661609418846,-1.2774,-0.3573,0.6033,-53.9,-7.43,18.5,
69694,1661609418846,-1.4112,-0.1019,0.679,-58.17,2.89,8.85,
69695,1661609418846,-1.2066,-0.0062,0.7605,-58.87,9.16,13.48,
69696,1661609418846,-1.2926,-0.0404,0.5784,-56.19,12.45,11.39,
69697,1661609418846,-1.1871,0.1989,0.5232,-51.0,21.41,13.85,
69698,1661609418846,-1.293,0.2911,0.3645,-49.0,12.96,12.68,
69699,1661609418848,-1.1715,0.5148,0.4959,-50.69,18.12,9.47,
69700,1661609418848,-1.172,0.4816,0.3172,-48.57,11.36,9.47,
69701,1661609418848,-1.0333,0.6437,0.1316,-48.3,23.79,8.3,
69702,1661609418848,-1.1553,0.7658,0.1297,-43.22,20.31,8.11,
69703,1661609418848,-1.1402,0.7296,0.3504,-44.21,30.46,7.01,
69704,1661609418850,-0.9947,0.8585,0.3562,-38.11,23.44,9.38,
69705,1661609418850,-0.8941,0.8659,-0.1399,-34.79,20.83,6.1,
69706,1661609418850,-0.8848,0.9572,0.4011,-31.21,33.94,1.81,
69707,1661609418850,-0.9312,0.8756,0.0847,-30.61,29.12,3.46,
69708,1661609418850,-0.9791,0.7711,-0.1916,-27.01,29.36,3.28,
69709,1661609418850,-0.8873,0.8619,-0.0285,-25.1,28.09,1.81,
69710,1661609418853,-0.8707,0.7228,-0.0451,-23.3,25.9,0.73,
69711,1661609418853,-0.7164,0.5656,-0.4201,-20.21,18.71,-0.28,
69712,1661609418853,-0.8316,0.6271,-0.3205,-23.0,12.87,0.64,
69713,1661609418853,-0.6173,0.5783,-0.2849,-21.61,10.5,-2.11,
69714,1661609418853,-0.7056,0.548,-0.5154,-21.61,6.27,3.46,
69715,1661609418853,-0.5338,0.5426,-0.1242,-17.43,19.72,-0.92,
69716,1661609418853,-0.7452,0.5338,-0.2087,-15.83,10.33,-0.28,
69717,1661609418853,-0.797,0.4708,-0.7258,-11.2,3.91,-0.37,
69718,1661609418853,-0.7657,0.4327,-0.1892,-12.3,0.69,0.73,
69719,1661609418853,-0.6964,0.5275,-0.1282,-10.32,7.88,-3.01,
69720,1661609418853,-0.5928,0.256,-1.05,-11.6,-2.44,1.17,
69721,1661609418853,-0.6441,0.3278,-0.4914,-12.2,6.44,-3.74,
69722,1661609418853,-0.731,0.2701,-0.1428,-11.51,-6.83,-1.74,
69723,1661609418853,-0.649,0.1359,-0.7903,-10.91,-13.01,-5.85,
69724,1661609418853,-0.6661,0.0158,-0.6057,-13.0,-18.25,-3.19,
69725,1661609418853,-0.8272,0.0177,-0.0998,-20.01,-2.94,-3.93,
69726,1661609418853,-0.7867,0.0929,-0.3054,-16.1,-10.46,-10.32,
69727,1661609418853,-0.7974,-0.2601,-0.5935,-18.31,-16.98,-10.95,
69728,1661609418853,-0.9293,-0.3334,0.052,-16.71,-17.07,-11.22,
69729,1661609418853,-0.9527,-0.3461,-0.1282,-19.83,-7.26,-9.77,
69730,1661609418853,-0.8868,-0.5897,-0.1257,-24.1,-8.69,-5.67,
69731,1661609418853,-0.9644,-0.6049,-0.1946,-27.3,-25.27,-4.66,
69732,1661609418853,-0.9659,-0.8368,-0.1076,-32.31,-16.22,0.73,
69733,1661609418853,-1.1344,-0.7235,0.1057,-33.12,-16.81,-3.65,
69734,1661609418853,-1.1031,-0.8988,-0.3191,-33.89,-33.73,0.18,
69735,1661609418853,-1.3365,-0.8133,0.1091,-39.69,-27.98,1.35,
69736,1661609418853,-1.2921,-0.6083,0.7122,-43.58,-23.16,-2.92,
69737,1661609418867,-1.2086,-0.9305,-0.3796,-46.21,-35.6,-1.47,
69738,1661609418867,-1.1934,-0.5394,0.471,-45.48,4.5,3.73,
69739,1661609418867,-1.3302,-0.6019,0.8367,-45.4,-6.66,8.66,
69740,1661609418867,-1.2061,-0.5658,-0.0364,-49.81,-16.81,5.73,
69741,1661609418867,-1.2828,-0.4803,0.4182,-47.7,-17.15,8.75,
69742,1661609418867,-1.2828,-0.245,1.0379,-49.11,13.89,10.39,
69743,1661609418867,-1.21,-0.2972,-0.0305,-55.29,5.51,13.85,
69744,1661609418867,-1.2887,-0.4315,-0.2331,-63.48,4.92,17.5,
69745,1661609418867,-1.338,-0.0941,0.7971,-58.19,-4.38,14.86,
69746,1661609418867,-1.3927,0.152,0.7937,-52.8,-2.77,11.58,
69747,1661609418867,-1.2447,-0.0155,0.1594,-54.91,11.02,10.02,
69748,1661609418872,-1.2579,0.109,0.6677,-62.4,25.64,8.94,
69749,1661609418872,-1.3262,0.3712,1.0354,-58.48,18.54,3.83,
69750,1661609418872,-1.1514,0.1974,0.1214,-47.4,8.99,10.66,
69751,1661609418872,-1.1368,0.1993,0.4363,-44.7,20.24,9.47,
69752,1661609418872,-1.212,0.3004,0.7005,-45.2,24.8,13.58,
69753,1661609418872,-1.2183,0.4659,0.2742,-55.9,15.83,9.84,
69754,1661609418872,-0.9991,0.3668,-0.1072,-49.78,12.12,9.38,
69755,1661609418872,-1.1529,0.3976,0.3045,-39.49,18.62,10.11,
69756,1661609418872,-1.0225,0.6149,0.3172,-40.39,19.81,7.65,
69757,1661609418872,-0.9478,0.5543,0.1341,-38.32,14.82,12.31,
69758,1661609418872,-0.9576,0.4747,0.1795,-39.19,16.51,11.21,
69759,1661609418872,-1.0177,0.61,0.2166,-36.2,12.12,9.01,
69760,1661609418872,-1.0079,0.8165,0.284,-32.78,25.56,8.3,
69761,1661609418872,-0.8775,0.6598,0.0154,-32.9,22.77,11.48,
69762,1661609418872,-0.8458,0.8483,-0.0827,-31.5,29.12,8.39,
69763,1661609418872,-0.8341,0.9127,0.0901,-25.2,24.71,7.01,
69764,1661609418872,-0.7213,0.9215,-0.1037,-21.11,27.93,2.82,
69765,1661609418872,-0.772,0.8766,-0.4153,-16.99,7.97,-0.0,
69766,1661609418872,-0.838,0.7155,-0.6033,-26.29,12.87,-0.28,
69767,1661609418872,-0.6807,1.0138,0.1301,-22.1,20.74,-5.03,
69768,1661609418872,-0.5655,0.6818,-0.5647,-16.1,18.79,-4.66,
69769,1661609418872,-0.6978,0.7365,-0.6907,-9.71,13.13,-4.66,
69770,1661609418872,-0.7164,0.7506,-0.2009,-8.92,7.3,-6.31,
69771,1661609418872,-0.712,0.6188,-0.2248,-8.9,9.66,-8.31,
69772,1661609418872,-0.5758,0.4498,-0.6169,-9.62,1.38,-10.5,
69773,1661609418872,-0.648,0.2101,-0.8386,-9.62,7.3,-10.58,
69774,1661609418872,-0.6168,0.3029,-0.0271,-8.12,10.67,-9.77,
69775,1661609418872,-0.776,0.0182,-0.7283,-8.12,-13.68,-7.39,
69776,1661609418872,-0.7052,-0.2152,-0.8064,-10.61,-18.0,-5.3,
69777,1661609418872,-0.8712,0.0372,0.1477,-13.61,-8.19,-10.05,
69778,1661609418872,-0.6251,-0.2738,-0.5344,-15.31,-12.84,-4.48,
69779,1661609418872,-0.795,-0.39,-0.5886,-19.5,-7.6,-4.02,
69780,1661609418872,-0.7232,-0.4081,0.1658,-19.69,-17.67,-5.85,
69781,1661609418872,-0.9156,-0.4755,-0.2605,-18.6,-24.43,-0.1,
69782,1661609418872,-0.8565,-0.4496,-0.2717,-21.12,-16.64,-4.02,
69783,1661609418872,-1.0723,-0.6888,-0.0813,-23.2,-15.12,-3.19,
69784,1661609418888,-1.0064,-0.3446,0.0593,-26.92,-22.06,-8.95,
69785,1661609418888,-1.087,-0.661,-0.3586,-28.8,-10.82,-5.48,
69786,1661609418888,-1.0538,-0.6136,-0.3132,-35.8,-23.07,-1.47,
69787,1661609418888,-1.2066,-0.4374,0.3875,-37.59,-24.52,0.27,
69788,1661609418888,-1.2022,-0.5043,0.2307,-33.89,-21.73,2.82,
69789,1661609418888,-1.0992,-0.6068,-0.3425,-37.4,-16.74,5.92,
69790,1661609418888,-1.2032,-0.5087,0.6804,-46.39,-7.17,1.44,
69791,1661609418888,-1.2554,-0.4745,0.6848,-46.3,-14.45,1.81,
69792,1661609418888,-1.2486,-0.5868,-0.1413,-41.42,-9.2,5.46,
69793,1661609418888,-1.3136,-0.5746,0.4876,-44.91,5.1,5.37,
69794,1661609418888,-1.4112,-0.4999,0.5466,-53.49,-8.1,5.02,
69795,1661609418888,-1.2559,-0.5419,0.1297,-54.58,-12.75,9.75,
69796,1661609418888,-1.3209,-0.5687,0.5369,-53.79,-7.5,11.85,
69797,1661609418895,-1.2891,-0.3934,0.4544,-54.89,-6.83,15.41,
69798,1661609418895,-1.4434,-0.2889,0.4915,-55.79,0.61,8.11,
69799,1661609418895,-1.3966,-0.327,0.7879,-55.07,-0.07,13.76,
69800,1661609418895,-1.4595,-0.2894,0.6878,-56.58,-9.03,7.84,
69801,1661609418895,-1.3814,0.0265,0.5916,-55.2,10.76,13.67,
69802,1661609418895,-1.2388,0.0084,0.7454,-54.39,12.2,11.39,
69803,1661609418895,-1.2193,0.2037,0.5559,-53.78,19.98,7.93,
69804,1661609418895,-1.2486,0.2814,0.1428,-48.59,7.88,6.1,
69805,1661609418895,-1.1422,0.5333,0.6253,-47.9,22.34,9.47,
69806,1661609418895,-1.2252,0.5929,0.698,-46.12,17.95,6.65,
69807,1661609418895,-1.2379,0.4015,-0.0935,-48.6,16.76,10.29,
69808,1661609418895,-1.1051,0.7394,0.1712,-47.4,16.94,3.64,
69809,1661609418895,-1.0997,0.7404,0.574,-41.69,26.66,6.65,
69810,1661609418895,-0.9786,0.8004,0.1619,-34.99,25.47,5.02,
69811,1661609418895,-0.8765,0.82,-0.0574,-31.6,22.68,4.83,
69812,1661609418895,-0.9742,0.8068,0.3352,-33.5,32.92,4.56,
69813,1661609418895,-0.9976,0.8541,0.3074,-30.19,27.09,1.99,
69814,1661609418895,-0.9483,0.7028,-0.3967,-28.8,28.6,1.26,
69815,1661609418895,-0.8394,0.7741,0.1624,-25.29,31.22,1.26,
69816,1661609418895,-0.8751,0.7369,-0.0451,-22.31,21.08,1.9,
69817,1661609418895,-0.7208,0.5426,-0.4831,-19.2,15.16,4.65,
69818,1661609418895,-0.8629,0.6339,-0.0105,-17.31,19.38,4.1,
69819,1661609418895,-0.8287,0.6256,0.0037,-21.7,16.42,3.28,
69820,1661609418895,-0.6783,0.5465,-0.4641,-22.6,3.82,0.64,
69821,1661609418895,-0.6583,0.5446,-0.0813,-20.39,12.53,3.73,
69822,1661609418895,-0.7091,0.5753,-0.0256,-14.71,8.3,2.73,
69823,1661609418895,-0.7755,0.5265,-0.8064,-11.89,3.24,-1.1,
69824,1661609418895,-0.7032,0.4996,-0.1145,-9.53,10.67,-2.2,
69825,1661609418895,-0.7818,0.5133,0.0984,-10.41,13.98,-2.39,
69826,1661609418895,-0.5875,0.4674,-0.6516,-12.3,1.29,-3.29,
69827,1661609418895,-0.6485,0.2233,-1.0642,-10.21,-1.17,-1.29,
69828,1661609418895,-0.6676,0.4196,-0.2117,-9.19,-2.1,-3.56,
69829,1661609418895,-0.7037,0.1564,-0.6369,-6.2,-10.3,-3.01,
69830,1661609418895,-0.6553,0.1744,-0.7322,-12.12,-6.24,-10.85,
69831,1661609418910,-0.7369,-0.0326,-0.3752,-17.11,-8.86,-7.94,
69832,1661609418910,-0.7862,0.0446,-0.2756,-15.8,-12.49,-8.4,
69833,1661609418910,-0.7823,-0.183,-0.4045,-14.21,-10.63,-6.58,
69834,1661609418910,-0.9425,-0.4183,-0.1579,-17.83,-6.57,-9.31,
69835,1661609418910,-0.9425,-0.3236,-0.073,-17.9,-17.07,-8.58,
69836,1661609418910,-0.9512,-0.5839,-0.1423,-18.71,-18.17,-6.84,
69837,1661609418910,-0.9835,-0.6634,-0.3347,-26.31,-9.46,-9.77,
69838,1661609418910,-1.0118,-0.7914,-0.0408,-33.28,-17.32,-7.57,
69839,1661609418910,-1.1573,-0.7186,0.0838,-32.8,-29.16,-1.47,
69840,1661609418910,-1.0836,-0.8099,-0.3401,-32.2,-27.65,1.63,
69841,1661609418910,-1.2955,-0.7914,0.2561,-38.7,-28.91,1.63,
69842,1661609418910,-1.2467,-0.5775,0.7068,-41.49,-19.6,0.27,
69843,1661609418910,-1.0372,-0.745,0.0764,-36.01,-22.82,2.18,
69844,1661609418910,-1.2203,-0.7982,-0.1438,-44.71,-8.86,3.0,
69845,1661609418910,-1.2506,-0.4701,1.1106,-52.98,-17.91,3.09,
69846,1661609418910,-1.4737,-0.6708,0.1194,-41.02,-15.71,8.85,
69847,1661609418910,-1.3028,-0.5531,0.0076,-39.89,-5.64,12.31,
69848,1661609418910,-1.4996,-0.3924,0.8831,-50.89,6.03,9.1,
69849,1661609418910,-1.3101,-0.2128,0.3801,-59.79,-8.02,8.57,
69850,1661609418910,-1.2403,-0.4164,-0.1213,-53.39,-11.82,9.47,
69851,1661609418910,-1.2686,-0.1283,0.8469,-52.19,-1.51,8.85,
69852,1661609418910,-1.4307,0.0353,0.9221,-51.5,10.67,6.83,
69853,1661609418910,-1.3619,0.0402,0.4431,-55.71,11.02,6.56,
69854,1661609418910,-1.3853,-0.0912,0.4124,-55.9,5.68,10.75,
69855,1661609418910,-1.4185,0.1569,0.8733,-53.68,13.05,9.65,
69856,1661609418910,-1.3262,0.3434,0.7,-47.0,20.57,9.75,
69857,1661609418910,-1.1959,0.1095,0.1892,-45.69,24.8,6.92,
69858,1661609418910,-1.2164,0.1207,0.3445,-47.99,23.79,14.77,
69859,1661609418910,-1.3243,0.3356,0.6609,-50.91,12.36,9.1,
69860,1661609418910,-1.1168,0.403,0.116,-45.99,14.56,10.29,
69861,1661609418910,-1.1851,0.3453,0.0271,-39.3,14.22,9.29,
69862,1661609418910,-1.2042,0.4655,0.5642,-42.59,20.07,14.31,
69863,1661609418910,-1.1436,0.6486,0.3689,-43.69,14.73,12.4,
69864,1661609418926,-0.9425,0.568,0.0388,-32.61,13.39,10.02,
69865,1661609418926,-0.8507,0.5338,0.1497,-30.4,16.68,7.65,
69866,1661609418926,-1.0758,0.8117,0.5237,-30.78,24.37,6.56,
69867,1661609418926,-0.8228,0.8082,0.0584,-31.5,23.61,10.57,
69868,1661609418926,-0.9781,0.6847,-0.3821,-28.32,25.3,8.66,
69869,1661609418926,-0.8604,0.9821,0.2981,-25.41,28.69,5.18,
69870,1661609418926,-0.9278,0.858,-0.0886,-21.09,20.31,4.83,
69871,1661609418926,-0.6822,0.8444,-0.6472,-17.2,19.9,-1.38,
69872,1661609418926,-0.7071,0.7242,-0.7527,-16.21,14.65,0.27,
69873,1661609418926,-0.6954,0.858,-0.0432,-21.81,30.81,-4.66,
69874,1661609418926,-0.5928,0.9459,-0.0774,-16.9,19.55,-4.11,
69875,1661609418926,-0.6402,0.5436,-0.9167,-14.52,12.45,-4.02,
69876,1661609418926,-0.713,0.7555,-0.3816,-8.41,11.43,-1.1,
69877,1661609418926,-0.7618,0.755,0.1165,-8.72,18.28,-5.03,
69878,1661609418926,-0.5401,0.3771,-0.801,-8.61,13.89,-5.03,
69879,1661609418926,-0.6007,0.2174,-0.9914,-9.21,10.5,-4.66,
69880,1661609418926,-0.5709,0.236,-0.4397,-8.92,10.26,-6.12,
69881,1661609418926,-0.7144,0.2189,-0.1667,-9.21,-11.56,-8.31,
69882,1661609418926,-0.7032,-0.1761,-1.1394,-4.61,-16.98,-6.4,
69883,1661609418926,-0.8033,-0.1971,-0.3459,-9.91,-14.36,-3.56,
69884,1661609418926,-0.752,-0.0004,0.1658,-19.41,-9.37,-3.47,
69885,1661609418926,-0.7662,-0.4134,-0.7141,-16.51,-24.59,-6.03,
69886,1661609418926,-0.901,-0.4379,-0.2175,-18.5,-13.68,-3.65,
69887,1661609418926,-0.9117,-0.4012,0.1897,-19.09,-12.66,-7.12,
69888,1661609418926,-0.9527,-0.2875,-0.1448,-20.01,-11.49,-7.39,
69889,1661609418926,-0.8282,-0.5536,-0.5998,-21.49,-31.19,-4.02,
69890,1661609418926,-0.8463,-0.4623,0.197,-24.2,-10.05,-3.1,
69891,1661609418926,-0.9097,-0.308,-0.0261,-30.09,-11.99,0.91,
69892,1661609418926,-0.9346,-0.8177,-0.7947,-30.0,-27.22,-0.74,
69893,1661609418926,-1.0875,-0.5209,0.1365,-28.49,-28.15,1.72,
69894,1661609418926,-1.297,-0.3993,0.595,-35.5,-16.74,0.64,
69895,1661609418926,-1.1187,-0.6683,-0.3581,-39.69,-29.75,0.73,
69896,1661609418942,-1.1197,-0.5526,0.2835,-38.2,-15.29,-0.55,
69897,1661609418942,-1.234,-0.4706,0.7468,-38.0,6.27,6.56,
69898,1661609418942,-1.2115,-0.5511,0.2156,-42.1,-4.71,-1.01,
69899,1661609418942,-1.2193,-0.6688,0.158,-47.11,-7.43,2.73,
69900,1661609418942,-1.4176,-0.5604,0.8176,-45.69,-16.74,2.45,
69901,1661609418942,-1.3126,-0.4745,0.155,-44.68,-8.69,9.47,
69902,1661609418942,-1.3184,-0.6366,0.3845,-53.99,6.78,9.56,
69903,1661609418942,-1.3551,-0.5013,0.7454,-59.09,7.47,13.39,
69904,1661609418942,-1.3678,-0.2684,0.1414,-54.57,-12.16,14.03,
69905,1661609418946,-1.4024,-0.3798,0.8162,-48.89,-0.15,15.96,
69906,1661609418946,-1.4371,-0.2357,0.7962,-52.01,2.14,15.41,
69907,1661609418946,-1.4273,-0.0419,0.3806,-59.41,2.72,12.31,
69908,1661609418946,-1.2032,0.0573,0.6297,-53.1,6.61,14.67,
69909,1661609418946,-1.3746,0.0084,0.8089,-45.49,15.83,14.67,
69910,1661609418946,-1.3023,0.2496,0.387,-47.0,13.55,14.77,
69911,1661609418946,-1.3756,0.3829,0.3318,-48.79,11.86,12.31,
69912,1661609418946,-1.255,0.6227,0.7893,-49.09,20.07,11.03,
69913,1661609418946,-1.2242,0.4049,-0.1228,-47.21,6.11,15.13,
69914,1661609418946,-1.1197,0.5641,-0.0627,-42.7,25.06,9.47,
69915,1661609418946,-1.106,0.8644,0.5911,-39.89,29.36,10.75,
69916,1661609418946,-1.1373,0.7267,0.3567,-39.3,28.02,8.85,
69917,1661609418946,-0.9986,0.8888,-0.0691,-30.99,20.74,6.56,
69918,1661609418946,-0.9991,0.7794,0.2976,-30.8,30.64,6.1,
69919,1661609418946,-0.9405,0.8834,0.2112,-26.31,31.15,3.92,
69920,1661609418946,-0.9166,0.7482,-0.4167,-25.9,26.16,8.39,
69921,1661609418946,-0.8087,0.6735,-0.2214,-28.31,34.61,3.73,
69922,1661609418946,-0.8321,0.7887,0.1926,-21.61,24.3,3.73,
69923,1661609418946,-0.8267,0.6076,-0.4021,-15.71,15.25,4.83,
69924,1661609418946,-0.8038,0.588,-0.2976,-11.6,14.15,6.01,
69925,1661609418946,-0.8428,0.6032,-0.115,-19.9,16.35,7.29,
69926,1661609418946,-0.6387,0.5299,-0.4504,-23.52,11.36,4.65,
69927,1661609418946,-0.6485,0.5426,-0.1516,-16.82,14.56,6.56,
69928,1661609418946,-0.5445,0.5573,0.0154,-10.3,15.08,2.45,
69929,1661609418946,-0.8512,0.5026,-0.5183,-7.63,-2.77,3.92,
69930,1661609418946,-0.6734,0.5011,-0.5613,-9.21,3.82,2.91,
69931,1661609418946,-0.8345,0.4894,-0.0808,-9.82,3.99,-0.37,
69932,1661609418946,-0.6236,0.4747,-0.427,-12.53,11.19,-1.1,
69933,1661609418946,-0.669,0.2506,-0.9636,-9.51,-1.84,-0.55,
69934,1661609418946,-0.6593,0.3287,-0.6819,-9.11,2.38,-2.29,
69935,1661609418946,-0.5528,0.3009,-0.3288,-8.21,-10.89,0.82,
69936,1661609418946,-0.7325,0.1788,-0.5383,-11.91,-8.1,-2.02,
69937,1661609418946,-0.691,0.1285,-0.5408,-10.91,-12.49,-3.65,
69938,1661609418946,-0.7803,-0.1337,-0.4763,-14.61,-5.64,-10.95,
69939,1661609418961,-0.7877,0.111,-0.0461,-14.3,-11.65,-11.04,
69940,1661609418961,-0.8165,-0.3988,-0.4441,-15.11,-17.24,-14.33,
69941,1661609418961,-0.8463,-0.4491,-0.1745,-9.3,-9.29,-5.21,
69942,1661609418961,-0.941,-0.3968,0.0408,-18.31,-4.89,-4.38,
69943,1661609418961,-0.8682,-0.6786,-0.3987,-22.71,-15.45,-5.3,
69944,1661609418961,-0.9771,-0.7318,-0.3459,-27.9,-23.92,-1.56,
69945,1661609418961,-0.9107,-0.8177,0.2185,-28.31,-13.01,-2.02,
69946,1661609418961,-1.1778,-0.7259,-0.2283,-33.79,-27.29,-5.57,
69947,1661609418961,-1.0191,-0.951,-0.1628,-33.89,-36.18,0.27,
69948,1661609418961,-1.3653,-0.6844,0.7034,-37.89,-21.63,-1.84,
69949,1661609418967,-1.1168,-0.6561,0.1804,-40.91,-25.1,1.09,
69950,1661609418967,-1.2681,-0.8636,-0.1116,-39.01,-22.3,5.37,
69951,1661609418967,-1.231,-0.5194,0.9671,-42.1,3.15,7.29,
69952,1661609418967,-1.2188,-0.5087,0.595,-42.19,-11.15,10.2,
69953,1661609418967,-1.19,-0.5487,-0.0032,-48.01,-20.79,11.76,
69954,1661609418967,-1.3223,-0.517,0.5633,-44.9,-12.08,10.94,
69955,1661609418967,-1.3355,-0.3812,0.573,-50.17,8.73,6.46,
69956,1661609418967,-1.314,-0.2479,-0.0398,-54.17,-0.07,9.56,
69957,1661609418967,-1.4346,-0.3524,0.6101,-55.77,0.86,5.46,
69958,1661609418967,-1.4815,-0.0643,0.74,-51.98,-14.02,9.29,
69959,1661609418967,-1.3541,0.0953,0.4529,-49.61,-2.27,9.2,
69960,1661609418967,-1.3995,0.0387,0.7034,-47.79,17.35,8.94,
69961,1661609418967,-1.3448,0.0138,0.763,-51.78,28.19,6.83,
69962,1661609418967,-1.3062,0.1852,0.8108,-54.31,23.79,4.19,
69963,1661609418967,-1.2511,0.2106,0.3748,-45.09,11.1,8.85,
69964,1661609418967,-1.2066,0.215,0.3294,-42.1,11.95,7.56,
69965,1661609418967,-1.2994,0.3278,0.5364,-40.0,18.45,12.68,
69966,1661609418967,-1.1695,0.4523,0.2244,-46.77,22.01,9.29,
69967,1661609418967,-0.9786,0.4215,0.0164,-50.31,13.39,9.56,
69968,1661609418967,-1.1632,0.4147,0.2532,-45.49,12.79,7.01,
69969,1661609418967,-1.0528,0.7199,0.7488,-33.21,17.18,9.01,
69970,1661609418967,-1.0089,0.6744,0.0554,-28.71,16.25,9.47,
69971,1661609418967,-0.8585,0.4957,0.1414,-30.19,23.7,11.03,
69972,1661609418967,-1.1412,0.8414,0.7102,-32.69,30.89,8.2,
69973,1661609418967,-0.9967,1.0065,0.4959,-28.71,27.26,8.94,
69974,1661609418967,-0.7672,0.7604,-0.5417,-23.2,15.75,2.36,
69975,1661609418967,-0.8253,0.8497,0.075,-23.79,28.6,2.82,
69976,1661609418967,-0.8136,0.9982,0.2942,-21.29,27.5,5.37,
69977,1661609418967,-0.7027,0.9166,-0.6379,-17.51,23.61,0.73,
69978,1661609418967,-0.651,0.7545,-0.6784,-15.81,14.73,-1.47,
69979,1661609418967,-0.8004,0.8854,0.0891,-17.17,17.2,0.56,
69980,1661609418967,-0.7008,1.0416,0.1804,-14.91,19.47,-2.48,
69981,1661609418967,-0.5216,0.7496,-0.7444,-11.3,14.22,-3.19,
69982,1661609418967,-0.6275,0.6198,-0.6042,-10.91,17.78,-3.93,
69983,1661609418967,-0.6783,0.735,0.0857,-8.3,12.12,-3.38,
69984,1661609418982,-0.6348,0.5016,-0.4075,-5.01,14.99,-5.12,
69985,1661609418982,-0.5684,0.2853,-0.8918,-3.83,8.14,-2.83,
69986,1661609418982,-0.6402,0.2086,-0.4607,-11.01,5.94,-4.57,
69987,1661609418982,-0.5914,0.1974,-0.2019,-11.71,-0.41,-4.93,
69988,1661609418982,-0.7843,0.0079,-0.5539,-6.41,-11.06,-5.3,
69989,1661609418982,-0.6309,-0.2152,-0.7859,-8.11,-14.71,-5.39,
69990,1661609418982,-0.8033,-0.0311,-0.1672,-11.71,-14.95,-6.58,
69991,1661609418982,-0.6295,-0.1415,-0.1614,-11.6,-18.17,-5.21,
69992,1661609418982,-0.8282,-0.4496,-0.6926,-14.5,-11.75,-6.66,
69993,1661609418982,-0.7613,-0.4618,-0.2248,-20.8,-17.32,-5.85,
69994,1661609418982,-1.0382,-0.4169,0.1975,-16.99,-14.95,-5.21,
69995,1661609418982,-0.8795,-0.3729,-0.4543,-16.0,-20.7,-5.03,
69996,1661609418982,-1.0465,-0.6835,-0.5642,-24.51,-15.88,-3.19,
69997,1661609418982,-0.9849,-0.3021,0.5027,-25.7,-17.24,-6.66,
69998,1661609418982,-0.9278,-0.5936,-0.7712,-22.21,-25.95,-3.65,
69999,1661609418982,-0.9166,-0.6508,-0.386,-29.8,-11.91,-0.83,
70000,1661609418982,-1.0811,-0.4247,0.6995,-38.59,-19.7,-1.29,
70001,1661609418982,-1.1012,-0.5394,-0.1047,-31.89,-27.98,2.82,
70002,1661609418982,-1.0445,-0.5878,-0.2131,-32.29,-7.85,1.26,
70003,1661609418982,-1.2164,-0.5345,0.7366,-41.81,-5.14,-1.74,
70004,1661609418982,-1.2178,-0.5834,0.114,-46.09,-21.56,-0.83,
70005,1661609418982,-1.2764,-0.6869,0.2258,-34.7,-9.37,7.93,
70006,1661609418982,-1.3946,-0.5624,0.7522,-36.79,3.41,7.01,
70007,1661609418982,-1.3541,-0.5072,0.4295,-47.9,-5.4,6.1,
70008,1661609418982,-1.1129,-0.6483,0.0784,-52.89,-10.89,8.2,
70009,1661609418982,-1.3194,-0.5677,0.8318,-47.79,-9.88,9.84,
70010,1661609418982,-1.211,-0.3876,0.4539,-45.99,-15.97,14.49,
70011,1661609418982,-1.3819,-0.3163,0.2849,-52.17,-2.1,9.38,
70012,1661609418982,-1.2745,-0.2596,1.0965,-56.29,-1.42,8.57,
70013,1661609418982,-1.4395,-0.0883,0.5217,-53.49,-9.46,10.84,
70014,1661609418982,-1.2706,0.0582,0.5559,-45.29,13.46,11.76,
70015,1661609418982,-1.4298,0.0363,0.7952,-48.68,20.24,14.58,
70016,1661609418982,-1.2105,0.2052,0.721,-55.0,17.87,10.84,
70017,1661609418998,-1.1759,0.4347,0.3714,-45.92,3.24,13.3,
70018,1661609418998,-1.1436,0.4161,0.5383,-40.39,25.3,14.49,
70019,1661609418998,-1.1856,0.5241,0.366,-44.9,24.37,13.76,
70020,1661609418998,-1.1959,0.6798,0.1961,-49.49,29.12,10.11,
70021,1661609418998,-1.1583,0.798,0.3928,-42.5,22.34,7.38,
70022,1661609418998,-1.1519,0.7037,0.2005,-31.59,22.27,11.85,
70023,1661609418998,-1.0098,0.8292,0.2268,-27.42,28.26,7.65,
70024,1661609418998,-0.8883,0.8624,0.22,-32.7,32.92,6.65,
70025,1661609418998,-0.8687,0.8073,0.1658,-30.31,36.81,-0.19,
70026,1661609418998,-0.8927,0.8073,-0.0764,-26.4,31.31,1.0,
70027,1661609418998,-0.8883,0.6803,-0.0134,-22.59,30.64,1.63,
70028,1661609418998,-0.8765,0.7526,-0.0202,-21.61,23.7,3.83,
70029,1661609418998,-0.8707,0.6534,-0.2351,-19.32,21.84,2.09,
70030,1661609418998,-0.6588,0.6544,-0.199,-18.8,21.5,5.09,
70031,1661609418998,-0.8375,0.6876,-0.1521,-16.51,15.49,3.73,
70032,1661609418998,-0.6138,0.5997,-0.2063,-19.12,9.91,5.55,
70033,1661609418998,-0.7511,0.7218,-0.3205,-15.71,0.78,3.28,
70034,1661609418998,-0.5435,0.6779,-0.0652,-14.52,12.62,3.64,
70035,1661609418998,-0.8282,0.5221,-0.4455,-7.01,7.63,2.36,
70036,1661609418998,-0.7852,0.549,-0.5862,-3.88,14.24,-2.46,
70037,1661609418998,-0.6329,0.5646,-0.4241,-4.4,6.03,-1.84,
70038,1661609418998,-0.6129,0.6144,-0.2336,-6.21,11.02,-9.68,
70039,1661609418998,-0.4581,0.3649,-0.6462,-8.11,-4.3,-5.3,
70040,1661609418998,-0.6422,0.2946,-0.8542,-9.19,1.96,-2.39,
70041,1661609419009,-0.5294,0.3566,-0.4162,-5.22,-1.17,-2.2,
70042,1661609419009,-0.7286,0.1242,-0.3611,-6.92,-6.33,-4.57,
70043,1661609419010,-0.6593,0.1749,-0.4592,-10.3,-5.4,-6.58,
70044,1661609419010,-0.6788,-0.0858,-0.7859,-13.49,-13.85,-3.38,
70045,1661609419011,-0.7901,-0.0087,-0.1384,-12.81,-6.16,-10.95,
70046,1661609419011,-0.7579,-0.1029,-0.1921,-10.62,-12.42,-6.58,
70047,1661609419011,-0.8531,-0.6171,-0.6355,-12.41,-9.62,-13.05,
70048,1661609419012,-0.9058,-0.4037,0.0423,-15.4,-13.35,-8.12,
70049,1661609419012,-0.9644,-0.662,-0.0886,-20.98,-22.23,-9.04,
70050,1661609419013,-0.9849,-0.788,-0.5061,-26.1,-15.55,-6.66,
70051,1661609419013,-1.0435,-0.7665,0.1077,-30.9,-17.67,-6.4,
70052,1661609419013,-1.0699,-0.8812,0.0481,-29.3,-32.64,-3.47,
70053,1661609419015,-1.0865,-0.8148,-0.3166,-28.1,-27.39,3.83,
70054,1661609419015,-1.1602,-0.8592,0.282,-38.38,-27.05,-0.92,
70055,1661609419016,-1.1632,-0.5692,0.5979,-39.6,-11.15,-0.92,
70056,1661609419016,-1.0196,-0.807,-0.2214,-33.21,-19.86,6.01,
70057,1661609419017,-1.1383,-0.6649,0.2717,-45.29,-14.02,2.36,
70058,1661609419017,-1.1363,-0.4066,0.574,-46.79,-23.4,5.92,
70059,1661609419018,-1.2545,-0.6332,0.1497,-37.88,-7.0,8.75,
70060,1661609419018,-1.3082,-0.5199,0.366,-36.59,-0.74,10.11,
70061,1661609419019,-1.3917,-0.4222,0.5125,-48.3,1.79,11.67,
70062,1661609419019,-1.4176,-0.2128,0.28,-57.48,-11.82,12.84,
70063,1661609419020,-1.2135,-0.2167,0.2664,-50.5,-7.67,10.75,
70064,1661609419020,-1.2696,-0.1874,0.6819,-46.7,5.34,12.77,
70065,1661609419021,-1.253,0.0612,0.6209,-49.29,12.2,12.84,
70066,1661609419021,-1.3179,0.1066,0.4978,-48.19,9.07,10.75,
70067,1661609419021,-1.379,-0.1073,0.5476,-44.9,6.61,14.77,
70068,1661609419022,-1.4112,0.2492,0.8801,-44.7,18.28,16.05,
70069,1661609419022,-1.2984,0.2521,0.5266,-45.9,23.61,14.77,
70070,1661609419023,-1.191,0.1242,0.0403,-45.89,18.79,14.31,
70071,1661609419023,-1.0616,0.2404,0.2429,-43.69,15.25,11.94,
70072,1661609419024,-1.2154,0.4088,0.6062,-42.59,9.66,12.93,
70073,1661609419024,-1.067,0.4367,0.0901,-37.49,12.87,16.23,
70074,1661609419025,-1.2052,0.4967,0.2302,-40.41,17.44,13.3,
70075,1661609419025,-1.1182,0.6578,0.7268,-41.51,15.83,12.31,
70076,1661609419026,-1.0509,0.7394,0.1194,-34.12,3.82,11.3,
70077,1661609419026,-0.8487,0.5158,0.1594,-25.3,15.49,14.86,
70078,1661609419027,-0.8863,0.6442,0.3743,-24.52,25.06,14.03,
70079,1661609419027,-1.0108,1.0914,0.3797,-29.68,31.82,10.57,
70080,1661609419028,-0.7974,0.8024,-0.3323,-25.61,22.1,8.2,
70081,1661609419028,-0.8936,0.777,0.1204,-21.0,30.22,4.47,
70082,1661609419029,-0.8839,1.0162,0.2464,-16.41,19.98,4.74,
70083,1661609419029,-0.7916,0.9308,-0.5076,-16.3,20.15,5.92,
70084,1661609419030,-0.6197,0.941,-0.5432,-15.81,20.83,6.56,
70085,1661609419030,-0.649,0.7706,-0.3367,-15.2,20.91,2.09,
70086,1661609419030,-0.711,1.0333,0.1936,-12.59,24.63,-0.0,
70087,1661609419031,-0.5733,0.8346,-0.614,-10.09,13.39,-5.12,
70088,1661609419031,-0.6031,0.5514,-0.6335,-8.92,18.12,-4.2,
70089,1661609419032,-0.6969,0.7765,0.0291,-4.9,17.52,-7.02,
70090,1661609419032,-0.6563,0.4142,-0.5207,-1.71,17.52,-5.94,
70091,1661609419033,-0.6114,0.3121,-0.8347,-1.82,11.77,-7.76,
70092,1661609419033,-0.6607,0.3165,-0.6614,-3.62,6.27,-9.5,
70093,1661609419034,-0.5992,0.1041,-0.2268,-8.11,0.28,-6.66,
70094,1661609419034,-0.7764,-0.0004,-0.5881,-6.61,-12.08,-10.85,
70095,1661609419035,-0.6104,-0.2718,-0.7688,-5.31,-12.08,-1.65,
70096,1661609419035,-0.772,-0.0463,-0.2707,-8.72,-10.13,-4.02,
70097,1661609419035,-0.6724,-0.0609,0.0515,-11.42,-11.23,-9.59,
70098,1661609419035,-0.8487,-0.5336,-0.7805,-9.39,-25.19,-4.84,
70099,1661609419035,-0.7774,-0.3929,-0.3396,-13.13,-10.72,-4.93,
70100,1661609419035,-1.0611,-0.4579,0.3762,-19.63,-9.2,-5.12,
70101,1661609419035,-0.8599,-0.2987,-0.6033,-18.6,-19.86,-3.74,
70102,1661609419035,-0.983,-0.6166,-0.7395,-18.6,-20.87,-5.21,
70103,1661609419035,-0.9713,-0.3583,0.6477,-28.69,-7.67,-4.48,
70104,1661609419035,-0.8765,-0.5731,-0.7668,-25.9,-31.19,-2.66,
70105,1661609419035,-0.9234,-0.6996,-0.3376,-25.79,-19.86,-5.03,
70106,1661609419035,-1.0626,-0.3588,0.6126,-34.4,-14.36,-1.29,
70107,1661609419035,-1.1168,-0.5712,-0.0588,-35.6,-25.78,-1.47,
70108,1661609419035,-1.0357,-0.5687,-0.0969,-27.88,-19.01,4.28,
70109,1661609419035,-1.1944,-0.5765,0.5515,-30.29,-0.82,7.84,
70110,1661609419035,-1.2486,-0.6029,0.5027,-43.4,-2.61,6.1,
70111,1661609419035,-1.2506,-0.62,0.1643,-47.08,-16.64,4.65,
70112,1661609419035,-1.2374,-0.6717,0.3826,-41.69,-15.45,3.83,
70113,1661609419035,-1.2979,-0.5326,0.3084,-42.79,-4.64,5.18,
70114,1661609419035,-1.0885,-0.5858,0.2337,-47.4,0.95,10.2,
70115,1661609419035,-1.4268,-0.7181,0.5642,-50.37,-3.96,11.3,
70116,1661609419035,-1.2828,-0.3754,0.3552,-49.49,-18.34,12.31,
70117,1661609419035,-1.4386,-0.287,0.4597,-48.36,-10.62,11.13,
70118,1661609419035,-1.3428,-0.3153,1.031,-51.58,14.91,12.84,
70119,1661609419035,-1.4874,-0.1263,0.386,-53.59,1.62,10.48,
70120,1661609419035,-1.335,0.0612,0.5281,-53.9,3.65,11.58,
70121,1661609419035,-1.1358,0.0353,0.6096,-42.52,2.05,14.86,
70122,1661609419035,-1.3121,0.2062,0.8103,-40.2,23.87,14.12,
70123,1661609419035,-1.2803,0.3971,0.5261,-45.69,17.78,16.14,
70124,1661609419035,-1.1812,0.4547,0.2,-48.59,20.48,14.22,
70125,1661609419035,-1.2164,0.5231,0.3323,-46.1,10.59,12.93,
70126,1661609419035,-1.2843,0.6671,0.5149,-40.2,21.17,13.12,
70127,1661609419035,-1.085,0.9137,0.5388,-36.12,22.43,11.58,
70128,1661609419035,-1.0001,0.8341,0.0999,-37.01,22.17,12.13,
70129,1661609419051,-1.0479,0.923,0.4695,-32.99,28.86,7.11,
70130,1661609419051,-0.9263,0.924,0.3469,-23.61,29.03,6.83,
70131,1661609419053,-0.8717,0.7618,-0.0701,-21.11,30.38,5.18,
70132,1661609419053,-0.9327,0.9201,0.0896,-23.5,33.68,6.65,
70133,1661609419053,-0.9698,0.7399,0.0169,-20.6,31.15,5.92,
70134,1661609419053,-0.793,0.6984,-0.1736,-20.21,27.16,1.99,
70135,1661609419053,-0.8306,0.7496,-0.1594,-16.41,19.05,2.91,
70136,1661609419053,-0.7262,0.7096,0.0549,-14.41,17.95,6.37,
70137,1661609419053,-0.8009,0.6998,-0.2908,-14.91,14.22,6.74,
70138,1661609419053,-0.586,0.6412,-0.2532,-20.3,25.39,5.82,
70139,1661609419053,-0.7818,0.7296,-0.1242,-13.11,15.58,3.46,
70140,1661609419053,-0.6202,0.6393,-0.1296,-8.61,13.46,2.91,
70141,1661609419053,-0.5841,0.5534,-0.2492,-5.63,5.1,-1.1,
70142,1661609419053,-0.7501,0.5997,-0.5481,-7.51,14.15,-3.38,
70143,1661609419053,-0.6612,0.6305,-0.4958,-5.01,9.57,-2.39,
70144,1661609419053,-0.6021,0.483,-0.405,-7.33,10.76,-6.03,
70145,1661609419053,-0.4454,0.5714,-0.3845,-7.4,13.55,-5.85,
70146,1661609419053,-0.6383,0.2467,-1.0989,-3.71,2.05,-5.03,
70147,1661609419053,-0.6104,0.2799,-1.0515,-4.31,-7.34,-7.21,
70148,1661609419053,-0.7086,0.2872,-0.1023,-9.71,-10.72,-5.3,
70149,1661609419053,-0.7076,0.1432,-0.2995,-7.11,-11.99,-6.22,
70150,1661609419053,-0.711,-0.0731,-1.1496,-4.02,-11.39,-8.4,
70151,1661609419053,-0.8287,-0.0155,0.198,-7.21,5.01,-11.77,
70152,1661609419053,-0.7911,-0.1122,-0.1843,-8.61,-20.63,-9.68,
70153,1661609419053,-0.837,-0.6791,-0.9534,-7.82,-27.81,-5.57,
70154,1661609419053,-0.9093,-0.598,0.3953,-9.21,1.12,-9.13,
70155,1661609419053,-0.8927,-0.5341,-0.2317,-18.39,-9.2,-10.67,
70156,1661609419053,-0.922,-0.8383,-0.7834,-21.81,-31.54,-6.93,
70157,1661609419053,-1.0362,-0.8602,0.4373,-25.3,-15.62,-7.21,
70158,1661609419053,-1.004,-0.8817,-0.1741,-23.9,-22.47,-5.94,
70159,1661609419053,-1.0997,-0.8534,-0.4128,-26.51,-31.19,-3.38,
70160,1661609419053,-1.1202,-0.8363,0.5579,-30.2,-26.71,2.45,
70161,1661609419053,-1.1641,-0.6454,0.4329,-39.39,-20.7,5.64,
70162,1661609419053,-1.168,-0.6532,0.1331,-37.08,-28.39,8.3,
70163,1661609419053,-1.3443,-0.8236,-0.0495,-36.52,-15.21,9.1,
70164,1661609419053,-1.2115,-0.4994,0.679,-41.0,-3.28,6.56,
70165,1661609419068,-1.3336,-0.4857,0.1961,-41.89,-13.94,8.66,
70166,1661609419068,-1.1964,-0.5326,0.218,-42.61,-16.38,7.75,
70167,1661609419068,-1.2491,-0.472,0.2537,-41.29,-17.41,14.12,
70168,1661609419068,-1.1812,-0.1258,0.5427,-46.5,7.88,8.94,
70169,1661609419068,-1.1822,-0.2176,0.5086,-53.18,7.54,9.2,
70170,1661609419068,-1.1915,-0.3553,0.3635,-52.59,0.1,13.76,
70171,1661609419068,-1.3507,-0.1127,0.4114,-45.49,-13.94,9.84,
70172,1661609419068,-1.3487,0.2565,0.8357,-44.57,2.38,9.2,
70173,1661609419068,-1.3306,0.0075,0.7185,-44.09,19.47,9.56,
70174,1661609419068,-1.294,-0.1263,0.2947,-46.68,24.04,13.48,
70175,1661609419068,-1.2691,0.3243,0.8406,-50.17,17.35,3.46,
70176,1661609419068,-1.2735,0.3849,0.4788,-41.69,4.08,9.47,
70177,1661609419073,-1.2115,0.1613,0.1819,-37.1,7.13,14.03,
70178,1661609419074,-1.1695,0.1408,0.2561,-38.72,19.72,17.5,
70179,1661609419074,-1.2774,0.5714,0.5315,-45.8,22.17,10.84,
70180,1661609419075,-1.1661,0.5284,0.0608,-44.1,5.94,11.39,
70181,1661609419075,-1.2393,0.5646,0.5164,-37.39,10.67,5.73,
70182,1661609419076,-0.9996,0.7614,0.6165,-28.89,14.73,10.02,
70183,1661609419076,-0.9605,0.7706,-0.0325,-25.3,18.88,5.92,
70184,1661609419077,-0.8883,0.7018,0.1458,-23.99,29.62,7.11,
70185,1661609419077,-1.1173,0.7916,0.5364,-28.1,28.95,2.54,
70186,1661609419077,-0.9337,0.9699,-0.0276,-26.91,21.58,1.44,
70187,1661609419077,-0.9415,0.8253,-0.343,-18.41,18.45,3.55,
70188,1661609419078,-0.8458,1.0011,0.367,-18.41,35.88,1.09,
70189,1661609419078,-0.7647,1.0148,-0.3342,-18.21,25.56,-0.19,
70190,1661609419079,-0.5572,0.9367,-0.5422,-15.8,27.26,-0.55,
70191,1661609419079,-0.6461,0.8502,-0.3679,-8.52,11.36,0.91,
70192,1661609419080,-0.7916,0.8737,-0.0212,-10.3,24.71,-3.47,
70193,1661609419080,-0.7183,1.0822,-0.2532,-11.2,14.22,-5.85,
70194,1661609419081,-0.6607,0.6041,-0.7063,-7.4,15.58,-6.66,
70195,1661609419081,-0.7335,0.6598,0.0164,-0.74,21.93,-7.85,
70196,1661609419081,-0.648,0.5763,-0.4519,2.79,15.92,-10.67,
70197,1661609419082,-0.4708,0.442,-0.7273,-0.2,12.62,-10.41,
70198,1661609419082,-0.6993,0.234,-0.5666,-6.02,1.03,-12.04,
70199,1661609419084,-0.7774,0.1212,-0.469,-4.63,-6.24,-7.85,
70200,1661609419084,-0.7428,0.1168,-0.343,-3.13,-6.5,-7.94,
70201,1661609419085,-0.7442,0.0704,-0.613,-3.7,-6.57,-6.75,
70202,1661609419085,-0.606,-0.2801,-0.6531,-5.51,-13.52,-4.84,
70203,1661609419085,-0.7999,0.0094,0.0349,-10.61,-12.66,-8.67,
70204,1661609419086,-0.6568,-0.2577,-0.2419,-6.52,-14.11,-7.76,
70205,1661609419086,-0.8258,-0.3671,-0.843,-6.82,-12.75,-7.3,
70206,1661609419087,-0.7476,-0.3993,-0.0256,-14.93,-16.74,-6.84,
70207,1661609419087,-0.9571,-0.4193,0.1785,-14.5,-17.07,-11.13,
70208,1661609419088,-0.7569,-0.5101,-0.8977,-12.52,-27.89,-6.4,
70209,1661609419088,-0.9762,-0.6097,-0.0515,-22.51,-8.86,-6.12,
70210,1661609419089,-1.0157,-0.3387,0.0686,-24.78,-17.91,-8.49,
70211,1661609419090,-1.108,-0.8295,-0.6936,-23.5,-24.26,1.99,
70212,1661609419090,-1.1812,-0.5414,0.3294,-28.1,-15.97,0.54,
70213,1661609419091,-1.1944,-0.4525,0.242,-31.51,-20.44,2.27,
70214,1661609419091,-1.127,-0.5736,0.011,-31.7,-13.85,2.27,
70215,1661609419092,-1.0528,-0.5985,0.012,-28.72,-1.42,-1.84,
70216,1661609419092,-1.1485,-0.6986,0.2996,-31.8,-4.71,-2.92,
70217,1661609419092,-1.2535,-0.6591,0.3015,-38.0,-19.7,-3.29,
70218,1661609419093,-1.3223,-0.6654,0.2449,-37.6,-8.36,4.1,
70219,1661609419093,-1.3824,-0.7992,0.3567,-38.4,-5.06,5.37,
70220,1661609419095,-1.3219,-0.5804,0.2849,-43.2,-8.6,3.46,
70221,1661609419095,-1.252,-0.6566,0.364,-47.02,-17.41,5.73,
70222,1661609419095,-1.3707,-0.5028,0.6228,-44.91,-11.49,5.27,
70223,1661609419095,-1.2442,-0.3446,0.4666,-44.38,-8.95,11.48,
70224,1661609419096,-1.2603,-0.3705,0.6048,-49.99,1.96,15.22,
70225,1661609419096,-1.4298,-0.3373,0.74,-51.91,-3.11,12.58,
70226,1661609419097,-1.5928,-0.0604,0.6008,-48.68,-8.27,14.22,
70227,1661609419097,-1.3463,0.1456,0.6165,-41.78,10.0,18.5,
70228,1661609419098,-1.4259,-0.0277,0.2361,-44.7,11.43,17.95,
70229,1661609419098,-1.314,0.3522,0.6961,-48.28,15.75,16.05,
70230,1661609419098,-1.2979,0.6149,0.3411,-43.69,3.31,13.3,
70231,1661609419099,-1.0411,0.5534,0.1702,-37.78,16.85,13.58,
70232,1661609419099,-1.1251,0.5411,0.4007,-40.2,20.83,14.77,
70233,1661609419100,-1.255,0.6652,0.5193,-44.59,26.16,10.75,
70234,1661609419100,-1.1275,0.9362,0.2254,-35.48,13.55,10.39,
70235,1661609419100,-1.13,0.8351,0.2268,-27.7,24.89,13.94,
70236,1661609419100,-1.0811,0.9313,0.6287,-22.72,34.27,7.75,
70237,1661609419100,-0.9005,0.8004,-0.1404,-26.6,33.68,6.28,
70238,1661609419100,-0.8507,0.8956,0.0232,-25.88,31.56,3.09,
70239,1661609419100,-0.9342,0.8566,0.1262,-17.81,24.13,2.45,
70240,1661609419100,-0.9879,0.7487,-0.1184,-16.3,16.85,3.09,
70241,1661609419100,-0.8682,0.7081,-0.3474,-15.71,15.66,4.01,
70242,1661609419100,-0.9415,0.7433,0.1624,-15.02,23.87,2.36,
70243,1661609419100,-0.7857,0.7286,-0.178,-12.9,15.41,4.19,
70244,1661609419100,-0.8258,0.651,-0.3884,-9.4,11.77,3.0,
70245,1661609419100,-0.5914,0.7028,0.1048,-12.93,11.26,0.09,
70246,1661609419100,-0.8258,0.8048,0.0623,-12.1,5.1,-3.29,
70247,1661609419100,-0.647,0.7394,-0.2356,-10.11,11.6,-0.74,
70248,1661609419100,-0.7906,0.5148,-0.4094,-0.52,14.48,-4.93,
70249,1661609419100,-0.7735,0.6398,-0.3821,0.48,14.48,-7.85,
70250,1661609419100,-0.734,0.5206,-0.5906,-0.11,0.86,-8.21,
70251,1661609419100,-0.6793,0.6276,-0.1452,-6.11,7.71,-11.68,
70252,1661609419100,-0.6607,0.3424,-0.7937,-4.52,-7.67,-9.86,
70253,1661609419100,-0.6607,0.1701,-1.198,-5.39,-16.9,-8.12,
70254,1661609419100,-0.608,0.3942,-0.324,1.19,-2.87,-8.31,
70255,1661609419100,-0.7086,0.2242,0.0847,-2.4,4.25,-10.85,
70256,1661609419100,-0.6759,0.0748,-0.9836,-3.5,-5.31,-13.97,
70257,1661609419100,-0.7335,-0.1903,-0.5144,-5.83,-7.0,-9.13,
70258,1661609419100,-0.9039,0.0011,0.4754,-8.5,-4.47,-8.49,
70259,1661609419100,-0.8175,-0.3729,-0.9558,-4.29,-19.27,-8.12,
70260,1661609419100,-0.8311,-0.7049,-0.4348,-5.51,-6.07,-4.48,
70261,1661609419100,-0.8853,-0.5878,0.2581,-11.2,-3.2,-5.76,
70262,1661609419100,-0.96,-0.6219,-0.1091,-13.51,-25.1,-4.2,
70263,1661609419100,-0.9425,-0.9149,-0.7976,-18.31,-29.75,-2.29,
70264,1661609419100,-1.0782,-0.788,0.3992,-26.19,-10.82,-3.38,
70265,1661609419100,-0.9928,-0.8749,0.0501,-28.9,-32.71,-1.93,
70266,1661609419100,-1.1295,-0.8954,-0.3088,-23.3,-27.89,3.92,
70267,1661609419116,-1.0826,-0.8724,0.4177,-25.81,-23.16,3.09,
70268,1661609419116,-1.2242,-0.642,0.4866,-40.79,-12.33,4.83,
70269,1661609419116,-1.0181,-0.7093,-0.1428,-37.01,-25.69,3.18,
70270,1661609419116,-1.1666,-0.7758,0.1028,-29.9,-5.9,7.84,
70271,1661609419116,-1.1602,-0.4335,0.53,-36.0,-12.66,3.92,
70272,1661609419116,-1.3341,-0.5575,0.158,-42.3,-15.45,2.91,
70273,1661609419116,-1.3424,-0.6102,0.0344,-40.0,-15.21,0.64,
70274,1661609419116,-1.462,-0.3837,0.3767,-40.0,-2.27,4.83,
70275,1661609419116,-1.2056,-0.1459,0.7761,-48.69,2.05,1.9,
70276,1661609419116,-1.2657,-0.183,0.5662,-50.59,-6.16,7.2,
70277,1661609419116,-1.3883,-0.4476,0.2717,-42.0,-8.6,8.11,
70278,1661609419116,-1.3804,0.0519,0.7195,-42.1,1.71,12.22,
70279,1661609419116,-1.3809,0.1368,0.8753,-43.2,18.28,8.2,
70280,1661609419116,-1.3472,-0.2181,0.2371,-45.4,16.01,9.1,
70281,1661609419116,-1.297,0.1134,0.5838,-46.41,10.26,10.94,
70282,1661609419116,-1.2833,0.2101,0.8704,-44.48,8.47,10.84,
70283,1661609419116,-1.3145,0.1862,0.3469,-37.69,2.72,12.84,
70284,1661609419116,-1.0938,0.1456,-0.0076,-37.3,13.46,15.22,
70285,1661609419116,-1.2686,0.3195,0.6546,-46.89,16.25,17.68,
70286,1661609419116,-1.1798,0.5909,0.284,-45.69,1.29,14.12,
70287,1661609419116,-1.2764,0.4318,0.033,-36.09,-2.94,18.14,
70288,1661609419116,-1.1363,0.7135,0.8894,-31.68,24.8,14.49,
70289,1661609419116,-0.9014,0.8844,0.7327,-31.3,25.56,11.12,
70290,1661609419116,-0.9576,0.7326,-0.0061,-29.32,28.86,10.75,
70291,1661609419116,-0.859,0.7052,0.218,-19.2,14.65,5.46,
70292,1661609419116,-1.0435,1.0045,0.3523,-21.61,23.7,1.63,
70293,1661609419116,-0.8634,0.9479,-0.1365,-21.4,18.79,6.28,
70294,1661609419116,-0.9644,0.8746,-0.0886,-20.21,32.15,4.74,
70295,1661609419116,-0.8868,0.9996,0.1204,-20.71,27.09,-1.84,
70296,1661609419116,-0.772,1.0114,-0.1726,-16.3,12.87,-1.29,
70297,1661609419116,-0.5894,1.0221,-0.3459,-7.72,18.62,-3.19,
70298,1661609419116,-0.669,0.7721,-0.2849,-6.52,20.48,-4.29,
70299,1661609419131,-0.8004,1.049,0.0413,-12.32,28.02,-11.95,
70300,1661609419131,-0.6929,0.9542,-0.4997,-8.61,13.46,-9.13,
70301,1661609419131,-0.692,0.5255,-0.4504,0.58,21.17,-9.59,
70302,1661609419131,-0.711,0.7013,-0.1711,4.39,22.86,-8.67,
70303,1661609419131,-0.63,0.6041,-0.4851,1.98,10.76,-12.5,
70304,1661609419131,-0.4571,0.3615,-0.7546,-1.0,5.27,-11.13,
70305,1661609419131,-0.6685,0.2789,-0.5686,-0.81,-0.82,-9.4,
70306,1661609419131,-0.6983,0.0675,-0.3581,-2.41,-3.2,-9.5,
70307,1661609419131,-0.7794,0.0905,-0.4094,-5.51,-4.64,-5.76,
70308,1661609419131,-0.6988,-0.1317,-0.6203,-4.72,-9.29,-5.57,
70309,1661609419131,-0.7481,-0.097,-0.428,-5.01,-20.11,-4.57,
70310,1661609419131,-0.7242,-0.0746,0.0716,-2.31,-11.91,-6.4,
70311,1661609419131,-0.9112,-0.4828,-0.5198,-4.61,-6.5,-2.74,
70312,1661609419131,-0.7955,-0.2845,-0.6062,-9.62,-7.09,-9.59,
70313,1661609419131,-0.7467,-0.3153,-0.2107,-12.0,-24.69,-4.66,
70314,1661609419131,-0.961,-0.4676,0.1233,-11.63,-19.7,-11.04,
70315,1661609419131,-0.7843,-0.5096,-0.7883,-12.01,-19.7,-3.56,
70316,1661609419131,-0.9859,-0.5902,-0.3347,-21.99,-9.2,-9.77,
70317,1661609419131,-1.0264,-0.3212,0.1287,-20.6,-29.42,-9.13,
70318,1661609419131,-1.1324,-0.8402,-0.4787,-20.73,-24.52,-1.29,
70319,1661609419131,-1.1275,-0.5878,0.1648,-27.9,-19.86,-4.29,
70320,1661609419131,-1.1314,-0.4623,0.2776,-28.2,-16.22,5.37,
70321,1661609419131,-1.1378,-0.5799,0.1648,-26.29,-11.91,1.9,
70322,1661609419131,-1.0875,-0.6537,0.0237,-36.3,-14.87,3.09,
70323,1661609419131,-1.1993,-0.7391,0.3113,-33.3,-10.72,-2.48,
70324,1661609419131,-1.2735,-0.6034,0.2639,-30.7,-8.02,0.91,
70325,1661609419131,-1.1734,-0.8129,0.1106,-30.49,-4.04,2.63,
70326,1661609419131,-1.315,-0.683,0.3528,-43.71,-14.71,5.55,
70327,1661609419131,-1.1822,-0.5848,0.3123,-47.38,-21.13,5.09,
70328,1661609419131,-1.397,-0.6996,0.3591,-40.7,-19.51,3.83,
70329,1661609419131,-1.3629,-0.4662,0.6804,-44.01,0.45,7.01,
70330,1661609419131,-1.3155,-0.3246,0.7073,-47.79,-4.97,10.48,
70331,1661609419131,-1.4185,-0.4379,0.4007,-49.29,-6.41,10.75,
70332,1661609419147,-1.1817,-0.0629,0.9734,-46.1,-3.03,15.31,
70333,1661609419147,-1.4244,0.0529,0.7132,-47.0,10.59,17.13,
70334,1661609419147,-1.2125,0.0631,0.0711,-43.31,8.14,19.05,
70335,1661609419147,-1.3624,0.004,0.7464,-44.79,17.18,20.15,
70336,1661609419147,-1.4244,0.5089,0.7757,-44.19,8.81,18.5,
70337,1661609419147,-1.2584,0.5841,0.03,-39.49,-3.2,15.96,
70338,1661609419147,-1.0372,0.5065,0.1048,-40.3,17.78,14.49,
70339,1661609419151,-1.1495,0.5924,0.8738,-40.09,24.97,14.31,
70340,1661609419151,-1.1226,0.8483,0.2346,-39.59,22.17,12.58,
70341,1661609419151,-0.9928,0.7867,0.0423,-31.42,21.34,11.3,
70342,1661609419151,-1.0596,0.9518,0.8621,-27.81,32.32,10.94,
70343,1661609419151,-1.0509,0.8766,0.1018,-21.18,27.09,7.38,
70344,1661609419151,-0.8282,0.755,-0.365,-23.5,27.16,5.64,
70345,1661609419153,-0.7872,0.8258,0.1262,-22.21,31.74,1.81,
70346,1661609419153,-0.9698,0.8439,0.1873,-18.79,20.57,3.55,
70347,1661609419153,-0.773,0.7008,-0.5085,-12.3,20.31,5.27,
70348,1661609419153,-0.8096,0.6593,0.0154,-14.21,21.34,5.27,
70349,1661609419153,-0.8214,0.7286,0.2141,-18.6,24.04,6.92,
70350,1661609419153,-0.7476,0.7907,-0.1916,-16.99,7.04,3.28,
70351,1661609419153,-0.7716,0.6715,-0.3718,-14.09,14.65,0.18,
70352,1661609419153,-0.5479,0.6461,0.1521,-8.11,15.41,0.54,
70353,1661609419153,-0.7535,0.8854,-0.2263,-3.53,17.44,-1.93,
70354,1661609419153,-0.5201,0.6212,-0.3576,-2.31,18.54,-6.93,
70355,1661609419153,-0.7628,0.549,-0.3718,-2.31,16.18,-5.57,
70356,1661609419153,-0.7955,0.6867,-0.4431,-2.99,3.41,-8.21,
70357,1661609419153,-0.6285,0.5675,-0.7336,-1.51,-6.16,-6.4,
70358,1661609419153,-0.5435,0.5836,-0.1667,-1.93,14.65,-7.76,
70359,1661609419153,-0.588,0.3927,-0.8762,-0.32,2.05,-5.94,
70360,1661609419153,-0.6095,0.1901,-1.0051,-2.63,-0.32,-10.95,
70361,1661609419153,-0.7262,0.4576,0.2674,-1.3,-1.0,-12.14,
70362,1661609419153,-0.734,0.087,-0.6335,-1.12,-10.39,-12.41,
70363,1661609419153,-0.6876,0.0006,-1.1028,-2.81,-23.16,-15.32,
70364,1661609419153,-0.8365,-0.0609,0.4177,-4.22,2.31,-9.31,
70365,1661609419153,-0.8565,-0.099,0.5149,-0.0,-2.51,-15.78,
70366,1661609419153,-0.8292,-0.3905,-1.1194,-1.21,-16.05,-10.58,
70367,1661609419153,-0.8668,-0.6781,-0.28,-8.01,-11.49,-12.59,
70368,1661609419153,-1.0513,-0.5721,0.5271,-11.6,-20.63,-5.48,
70369,1661609419153,-0.8194,-0.807,-0.9197,-12.41,-26.12,-3.1,
70370,1661609419153,-1.0587,-0.9305,-0.1633,-22.3,-14.28,-5.39,
70371,1661609419153,-1.0645,-0.7494,0.6238,-27.3,-27.98,1.17,
70372,1661609419153,-1.1412,-0.9374,-0.5779,-22.91,-34.57,1.9,
70373,1661609419153,-1.0733,-0.8778,0.1643,-28.2,-16.64,2.18,
70374,1661609419153,-1.3267,-0.7538,0.6536,-28.22,-21.21,5.46,
70375,1661609419153,-1.1461,-0.6327,0.0745,-27.81,-15.8,6.19,
70376,1661609419153,-1.213,-0.7694,-0.1902,-33.28,-17.91,7.47,
70377,1661609419153,-1.1358,-0.5751,0.5857,-38.18,-9.7,2.27,
70378,1661609419153,-1.2374,-0.4134,0.2742,-38.01,-18.76,4.01,
70379,1661609419169,-1.1285,-0.5853,0.0213,-33.41,-1.75,6.74,
70380,1661609419169,-1.2906,-0.5926,0.0198,-36.3,-6.74,8.3,
70381,1661609419169,-1.3585,-0.3578,0.5154,-47.99,-8.69,7.65,
70382,1661609419169,-1.3712,-0.1351,0.6931,-49.49,-18.34,8.48,
70383,1661609419169,-1.2559,-0.3573,0.2258,-42.1,-6.5,6.65,
70384,1661609419169,-1.2608,-0.0604,0.6624,-38.9,8.06,6.1,
70385,1661609419169,-1.3038,0.0924,0.9636,-45.78,22.86,3.09,
70386,1661609419169,-1.2418,-0.0819,0.4143,-43.0,16.68,6.74,
70387,1661609419169,-1.3228,-0.1942,0.1438,-43.4,4.84,8.57,
70388,1661609419169,-1.3883,0.0416,0.553,-41.1,13.55,8.02,
70389,1661609419169,-1.3795,0.3546,0.8206,-35.69,13.8,11.76,
70390,1661609419169,-1.2066,0.0353,-0.0383,-38.88,14.32,12.4,
70391,1661609419169,-1.0997,0.1481,0.1184,-42.39,5.51,10.75,
70392,1661609419169,-1.2447,0.5333,0.7258,-41.29,6.95,10.48,
70393,1661609419169,-1.0382,0.5324,0.1507,-34.79,6.2,13.85,
70394,1661609419169,-1.2662,0.4933,-0.072,-30.61,12.2,13.3,
70395,1661609419169,-1.1441,0.6827,0.6643,-36.29,19.81,12.13,
70396,1661609419169,-1.191,0.8024,0.5735,-31.7,10.93,8.66,
70397,1661609419169,-0.9605,0.7687,0.0193,-22.1,13.46,13.85,
70398,1661609419169,-1.0416,0.8048,0.0305,-16.01,16.76,11.21,
70399,1661609419169,-0.9122,1.132,0.3987,-20.8,39.43,7.29,
70400,1661609419169,-0.8575,0.8981,-0.2283,-21.11,23.03,4.92,
70401,1661609419169,-0.9205,0.8121,-0.3484,-17.81,22.94,8.3,
70402,1661609419169,-0.8428,1.0407,-0.0886,-13.42,12.2,8.48,
70403,1661609419169,-0.7652,0.9952,-0.1135,-9.82,22.43,5.27,
70404,1661609419169,-0.6807,0.9601,-0.3576,-8.11,19.31,3.83,
70405,1661609419169,-0.6998,0.8917,-0.4455,-10.81,21.34,-4.02,
70406,1661609419169,-0.6549,1.067,0.0247,-10.01,21.0,-4.38,
70407,1661609419169,-0.6261,0.715,-0.3777,-2.61,18.54,-10.76,
70408,1661609419169,-0.6685,0.5294,-0.4831,1.09,19.05,-10.76,
70409,1661609419169,-0.67,0.547,-0.3826,2.67,14.06,-14.06,
70410,1661609419169,-0.7061,0.506,-0.4538,-1.51,8.4,-13.33,
70411,1661609419169,-0.6226,0.3175,-0.6174,2.68,1.03,-13.69,
70412,1661609419169,-0.7999,0.1613,-0.553,-0.0,-3.28,-14.5,
70413,1661609419185,-0.7012,0.1256,-0.2561,-4.11,-7.0,-11.31,
70414,1661609419185,-0.8179,0.0626,-0.4299,-0.9,-9.7,-10.85,
70415,1661609419185,-0.5103,-0.1683,-0.5945,-0.72,-17.57,-7.85,
70416,1661609419186,-0.7896,-0.0531,-0.1091,-1.91,-14.11,-9.13,
70417,1661609419186,-0.6612,-0.2059,-0.1911,-3.53,-4.3,-6.03,
70418,1661609419187,-0.9063,-0.2963,-0.5232,-6.99,-22.99,-5.94,
70419,1661609419187,-0.8165,-0.3124,-0.6067,-8.61,-28.23,-8.4,
70420,1661609419188,-0.9674,-0.3778,-0.0154,-4.29,-13.09,-3.74,
70421,1661609419188,-0.8316,-0.3226,-0.1042,-7.71,-11.15,-5.57,
70422,1661609419189,-0.7252,-0.6039,-0.7732,-14.01,-26.71,-3.38,
70423,1661609419189,-0.8609,-0.3788,0.034,-19.41,-17.67,-7.48,
70424,1661609419190,-0.9918,-0.5521,-0.0349,-19.41,-21.63,-5.39,
70425,1661609419190,-1.1304,-0.807,-0.074,-21.9,-20.28,-3.29,
70426,1661609419191,-1.1392,-0.4989,0.1629,-22.71,-25.27,-7.12,
70427,1661609419191,-1.2393,-0.5873,0.241,-21.82,-8.19,-4.02,
70428,1661609419194,-1.1236,-0.6293,0.1516,-23.82,-10.46,-4.11,
70429,1661609419194,-1.1651,-0.8749,-0.0608,-29.8,-9.29,-0.46,
70430,1661609419194,-1.3204,-0.6815,0.4285,-33.42,-4.3,-2.02,
70431,1661609419194,-1.3663,-0.6508,0.2449,-37.28,-18.6,4.1,
70432,1661609419194,-1.2637,-0.9003,0.1448,-37.2,-24.33,7.93,
70433,1661609419194,-1.3907,-0.6151,0.4573,-37.49,-14.02,11.03,
70434,1661609419195,-1.127,-0.6473,0.2805,-42.32,-5.73,13.03,
70435,1661609419195,-1.3521,-0.5106,0.6555,-49.4,-7.93,11.39,
70436,1661609419196,-1.3038,-0.3578,0.8079,-45.0,-13.52,12.77,
70437,1661609419196,-1.525,-0.4657,0.3762,-41.22,-17.32,13.94,
70438,1661609419197,-1.3004,-0.2435,0.5994,-45.99,15.08,11.76,
70439,1661609419197,-1.4083,0.0143,1.011,-49.49,14.82,14.22,
70440,1661609419198,-1.2486,0.0621,0.137,-44.0,3.24,13.58,
70441,1661609419198,-1.2535,0.1017,0.2268,-36.79,2.81,10.75,
70442,1661609419199,-1.2647,0.3624,1.2185,-39.3,20.91,9.65,
70443,1661609419199,-1.1944,0.4064,-0.0559,-42.19,7.37,9.56,
70444,1661609419199,-1.2364,0.3551,-0.3708,-46.01,17.44,12.31,
70445,1661609419200,-1.1822,0.6115,0.7722,-37.68,16.25,14.12,
70446,1661609419200,-1.1954,0.7584,0.7039,-35.21,21.24,9.84,
70447,1661609419201,-1.0679,0.8248,-0.0759,-27.71,21.5,7.29,
70448,1661609419201,-1.0484,0.7721,0.4944,-29.21,33.85,5.73,
70449,1661609419202,-1.1202,1.0021,0.6883,-27.9,29.12,5.27,
70450,1661609419202,-0.8526,0.8126,-0.301,-23.7,18.62,4.74,
70451,1661609419203,-0.8751,0.7116,-0.3054,-19.4,30.72,1.63,
70452,1661609419203,-0.9542,0.8209,0.1887,-18.8,33.08,4.56,
70453,1661609419203,-1.0509,0.8209,-0.1301,-18.71,22.77,0.45,
70454,1661609419204,-0.7711,0.6998,-0.2893,-14.3,11.36,2.54,
70455,1661609419204,-0.94,0.674,0.1184,-14.1,10.59,0.27,
70456,1661609419205,-0.7428,0.8283,-0.031,-8.92,13.98,2.18,
70457,1661609419205,-0.7271,0.736,-0.364,-12.12,16.01,0.09,
70458,1661609419206,-0.6114,0.6393,-0.2009,-14.52,20.65,0.64,
70459,1661609419206,-0.8458,0.7174,-0.0012,-9.3,14.73,-0.46,
70460,1661609419207,-0.7847,0.8385,-0.1506,-1.22,18.79,-4.11,
70461,1661609419207,-0.6978,0.5387,-0.5691,4.7,8.47,-5.12,
70462,1661609419208,-0.7803,0.7013,-0.4792,-2.51,8.73,-7.57,
70463,1661609419208,-0.5699,0.6183,-0.5701,-6.09,-1.0,-4.75,
70464,1661609419209,-0.7764,0.5353,-0.4402,-2.51,11.52,-7.76,
70465,1661609419209,-0.524,0.5499,-0.5246,1.8,-0.91,-9.4,
70466,1661609419209,-0.7139,0.2448,-1.2312,1.29,-11.32,-9.13,
70467,1661609419210,-0.6671,0.5275,0.0901,-4.22,2.55,-13.88,
70468,1661609419211,-0.6646,0.2418,-0.2409,-2.22,-5.73,-10.5,
70469,1661609419211,-0.6715,-0.0116,-1.1618,1.57,-9.96,-12.14,
70470,1661609419211,-0.7716,0.0128,-0.0808,-0.71,-3.2,-13.88,
70471,1661609419212,-0.8702,-0.1366,0.1785,-3.62,2.05,-12.69,
70472,1661609419212,-0.7779,-0.2758,-0.5764,-0.29,-26.03,-13.05,
70473,1661609419212,-0.7955,-0.5804,-1.0041,-1.03,-21.73,-15.23,
70474,1661609419212,-0.9185,-0.5756,0.4588,-5.31,-7.85,-9.13,
70475,1661609419212,-0.9874,-0.6503,-0.2702,-16.8,-15.55,-6.93,
70476,1661609419212,-0.8604,-0.9584,-0.8196,-18.51,-31.61,-5.3,
70477,1661609419212,-1.0797,-0.7465,0.4641,-20.82,-18.41,0.91,
70478,1661609419212,-1.0289,-0.786,0.1443,-20.39,-29.58,3.46,
70479,1661609419212,-1.1466,-0.974,-0.3777,-24.62,-23.5,1.0,
70480,1661609419212,-1.0562,-0.8065,0.5237,-25.49,-25.78,-1.2,
70481,1661609419212,-1.3668,-0.6561,0.5178,-26.19,-20.37,0.91,
70482,1661609419212,-1.0836,-0.7259,-0.196,-30.2,-20.37,2.63,
70483,1661609419212,-1.2198,-0.8099,0.0486,-36.4,-7.67,3.0,
70484,1661609419212,-1.2774,-0.4471,0.6917,-31.41,-11.65,6.1,
70485,1661609419212,-1.3463,-0.515,0.032,-32.9,-11.82,8.2,
70486,1661609419212,-1.2525,-0.5892,-0.0769,-41.08,-14.87,8.3,
70487,1661609419212,-1.38,-0.3485,0.6101,-43.09,-13.26,8.3,
70488,1661609419212,-1.4205,-0.224,0.8518,-40.9,2.98,8.48,
70489,1661609419212,-1.3297,-0.2777,0.3357,-39.1,3.65,11.85,
70490,1661609419212,-1.3678,-0.3212,0.3001,-43.09,7.13,9.1,
70491,1661609419212,-1.3966,0.0109,1.0252,-45.08,8.73,4.74,
70492,1661609419212,-1.3404,-0.0248,0.78,-44.09,7.21,8.75,
70493,1661609419212,-1.3155,-0.1634,0.1785,-36.99,7.54,10.29,
70494,1661609419212,-1.3228,-0.059,0.2478,-37.8,23.11,11.3,
70495,1661609419212,-1.2628,0.2013,0.8938,-47.99,27.42,10.2,
70496,1661609419212,-1.336,0.1222,0.5193,-44.01,6.03,9.47,
70497,1661609419212,-1.1397,-0.0145,-0.1242,-38.4,-2.1,11.94,
70498,1661609419212,-1.272,0.3229,0.5364,-36.2,7.3,13.67,
70499,1661609419212,-1.293,0.6285,0.78,-40.88,18.62,13.39,
70500,1661609419212,-1.2579,0.4406,-0.0896,-37.4,6.03,14.03,
70501,1661609419212,-1.1099,0.6539,0.5027,-32.8,14.06,8.66,
70502,1661609419212,-0.898,0.7877,0.801,-22.71,20.65,10.57,
70503,1661609419212,-1.0645,0.8034,0.3909,-19.72,29.79,9.29,
70504,1661609419212,-0.879,0.7638,-0.2522,-24.71,23.27,9.84,
70505,1661609419228,-1.0704,0.8722,0.2669,-27.61,27.93,6.1,
70506,1661609419228,-0.9674,1.0836,0.4016,-19.61,17.28,4.83,
70507,1661609419228,-0.918,0.8805,-0.6096,-12.3,13.89,4.01,
70508,1661609419228,-0.7208,0.9157,-0.4055,-13.51,26.83,4.19,
70509,1661609419228,-0.7686,1.0109,0.1804,-17.09,29.03,3.09,
70510,1661609419228,-0.6637,1.0538,-0.1667,-14.23,25.06,-1.47,
70511,1661609419228,-0.5543,0.881,-0.5935,-6.31,15.49,-1.93,
70512,1661609419228,-0.7579,0.9767,0.0525,-0.81,31.15,-6.4,
70513,1661609419228,-0.7086,0.8707,-0.1526,-0.4,22.43,-6.75,
70514,1661609419228,-0.6807,0.4977,-0.5857,-3.01,12.96,-7.39,
70515,1661609419228,-0.5909,0.5538,-0.4133,2.59,11.6,-6.93,
70516,1661609419228,-0.6622,0.567,-0.362,6.66,5.94,-7.94,
70517,1661609419228,-0.4835,0.2677,-0.7932,3.49,6.61,-6.93,
70518,1661609419228,-0.6104,0.2994,-0.3616,1.57,3.74,-5.21,
70519,1661609419228,-0.7296,0.0778,-0.3845,-3.12,-3.28,-9.04,
70520,1661609419228,-0.6158,0.0143,-0.676,-1.22,-18.0,-8.58,
70521,1661609419228,-0.7818,0.0636,-0.3909,1.49,-8.1,-8.95,
70522,1661609419228,-0.5845,-0.0555,-0.1267,3.49,-12.33,-6.75,
70523,1661609419228,-0.7813,-0.0604,-0.6169,0.38,-8.86,-6.75,
70524,1661609419228,-0.647,-0.203,-0.1355,-6.6,-10.13,-7.3,
70525,1661609419228,-0.8428,-0.3295,-0.4016,-5.21,-22.9,-8.49,
70526,1661609419228,-0.8297,-0.3265,-0.5422,1.17,-24.43,-2.83,
70527,1661609419228,-0.9845,-0.4496,0.1443,-5.41,-3.78,-8.03,
70528,1661609419228,-0.8023,-0.3226,-0.4548,-13.11,-13.85,-7.94,
70529,1661609419228,-0.9805,-0.6459,-0.7409,-13.13,-30.85,-7.02,
70530,1661609419228,-1.0084,-0.4354,0.3723,-12.41,-14.11,-9.22,
70531,1661609419228,-1.0474,-0.6649,-0.2561,-17.29,-20.63,-9.4,
70532,1661609419228,-1.0582,-0.5936,-0.1174,-25.41,-20.44,-4.84,
70533,1661609419228,-1.0357,-0.5297,0.4783,-19.0,-18.08,-0.92,
70534,1661609419228,-1.0777,-0.6185,0.1863,-22.19,-10.05,2.82,
70535,1661609419228,-1.1173,-0.6429,-0.1018,-27.41,-10.72,5.46,
70536,1661609419243,-1.1915,-0.8192,0.0022,-29.29,-3.87,-3.38,
70537,1661609419243,-1.2847,-0.7474,0.5911,-26.92,-8.36,1.0,
70538,1661609419243,-1.359,-0.6156,-0.0295,-33.01,-25.27,-0.74,
70539,1661609419243,-1.2052,-0.8685,0.1668,-38.99,-24.09,7.84,
70540,1661609419243,-1.3975,-0.5853,0.676,-37.01,-0.15,4.74,
70541,1661609419243,-1.0982,-0.6551,-0.008,-37.01,-8.79,10.29,
70542,1661609419243,-1.357,-0.5189,0.5965,-42.79,-8.69,5.55,
70543,1661609419243,-1.294,-0.3851,1.0799,-43.69,-13.18,13.48,
70544,1661609419243,-1.3526,-0.4037,0.0965,-40.7,-15.12,14.4,
70545,1661609419243,-1.2056,-0.0409,0.885,-43.71,12.7,15.5,
70546,1661609419243,-1.5069,-0.0721,0.8103,-45.09,13.72,13.58,
70547,1661609419243,-1.3399,0.0426,-0.0281,-40.39,-1.42,18.87,
70548,1661609419243,-1.2125,0.1119,0.1424,-38.11,8.47,15.86,
70549,1661609419243,-1.192,0.3605,1.1126,-42.88,19.31,14.58,
70550,1661609419243,-1.2076,0.3981,-0.052,-40.3,5.6,12.93,
70551,1661609419243,-1.0787,0.464,0.1931,-40.49,16.35,12.77,
70552,1661609419243,-1.1856,0.6427,0.9939,-37.2,18.38,14.58,
70553,1661609419243,-1.211,0.7755,0.2449,-35.59,19.14,9.2,
70554,1661609419243,-1.067,0.756,0.054,-30.11,21.5,7.01,
70555,1661609419243,-0.9752,0.7623,0.4426,-27.3,29.62,7.65,
70556,1661609419243,-1.0142,0.9186,0.6746,-22.39,27.59,7.84,
70557,1661609419243,-0.8712,0.8229,-0.1662,-18.91,24.2,7.56,
70558,1661609419243,-0.7623,0.6759,-0.1838,-19.69,31.48,8.3,
70559,1661609419243,-0.9595,0.8375,0.2503,-17.51,32.15,4.19,
70560,1661609419243,-0.8726,0.7409,-0.1428,-15.71,17.28,7.56,
70561,1661609419243,-0.7462,0.6779,-0.3606,-13.2,2.48,7.47,
70562,1661609419243,-0.8619,0.695,0.0266,-12.9,10.09,7.93,
70563,1661609419243,-0.7423,0.8112,0.2639,-14.09,16.51,2.18,
70564,1661609419243,-0.731,0.735,-0.3987,-10.21,18.28,2.45,
70565,1661609419243,-0.4825,0.6603,-0.1233,-5.31,20.57,-0.0,
70566,1661609419243,-0.8038,0.8654,0.26,-4.81,19.64,0.09,
70567,1661609419243,-0.8272,0.9074,-0.0046,-0.51,13.89,-6.31,
70568,1661609419243,-0.6309,0.483,-0.8791,2.77,4.08,-4.29,
70569,1661609419243,-0.7003,0.7199,-0.2458,-1.62,10.67,-8.67,
70570,1661609419243,-0.6563,0.6896,-0.5139,-0.22,-1.25,-8.4,
70571,1661609419259,-0.503,0.5148,-0.5749,0.3,14.32,-8.49,
70572,1661609419259,-0.543,0.4913,-0.8489,4.79,-0.65,-9.59,
70573,1661609419259,-0.648,0.2936,-1.0119,1.08,-4.71,-11.04,
70574,1661609419259,-0.6881,0.4786,-0.0539,1.2,-3.11,-16.24,
70575,1661609419259,-0.6319,0.2662,-0.3083,1.78,-2.18,-12.41,
70576,1661609419259,-0.7076,-0.0072,-0.9358,1.7,-5.99,-13.6,
70577,1661609419259,-0.7701,0.1027,-0.2087,2.28,-0.41,-15.05,
70578,1661609419259,-0.8087,-0.2362,0.1961,2.09,-1.34,-12.69,
70579,1661609419259,-0.8595,-0.4442,-1.0295,3.49,-25.52,-14.15,
70580,1661609419259,-0.8472,-0.6356,-0.3054,-2.51,-18.93,-7.02,
70581,1661609419259,-1.0137,-0.5751,0.5432,-6.72,-5.14,-5.67,
70582,1661609419259,-0.9483,-0.5834,-0.1101,-14.81,-17.24,-6.12,
70583,1661609419259,-0.7813,-0.9759,-1.1101,-13.9,-32.8,-0.37,
70584,1661609419259,-1.1002,-0.7933,0.4856,-20.5,-18.25,-5.12,
70585,1661609419259,-1.0128,-0.6913,0.3928,-20.08,-24.26,0.73,
70586,1661609419259,-1.1236,-1.0199,-0.8537,-24.02,-31.02,-1.2,
70587,1661609419259,-0.9845,-0.7299,0.6726,-22.6,-24.59,-1.74,
70588,1661609419259,-1.3223,-0.6859,0.7195,-22.62,-15.21,5.09,
70589,1661609419259,-1.0616,-0.7396,-0.6867,-26.81,-23.83,6.46,
70590,1661609419259,-1.2657,-0.7284,0.2346,-33.12,-5.31,2.18,
70591,1661609419259,-1.3394,-0.4222,0.927,-29.7,-11.06,5.02,
70592,1661609419259,-1.2965,-0.5443,-0.4299,-32.4,-16.98,6.37,
70593,1661609419259,-1.1944,-0.5526,0.1702,-37.8,-16.48,9.93,
70594,1661609419259,-1.3282,-0.3173,0.7952,-39.81,-10.39,8.39,
70595,1661609419259,-1.2603,-0.2137,0.4544,-38.3,-1.51,8.75,
70596,1661609419259,-1.169,-0.391,0.3552,-37.28,5.34,6.83,
70597,1661609419259,-1.3355,-0.2782,0.5667,-38.88,5.85,3.92,
70598,1661609419259,-1.4058,-0.0145,0.8299,-38.69,7.37,7.47,
70599,1661609419259,-1.3595,-0.1459,0.7068,-37.42,6.61,8.39,
70600,1661609419259,-1.2979,-0.1029,0.3108,-38.2,7.97,10.66,
70601,1661609419259,-1.3526,0.0743,0.4114,-42.38,13.39,12.77,
70602,1661609419275,-1.2511,0.1061,0.7341,-40.59,15.16,13.48,
70603,1661609419275,-1.3326,0.0734,0.594,-35.1,1.88,10.39,
70604,1661609419275,-1.2198,0.0866,-0.0261,-33.89,-4.97,14.22,
70605,1661609419275,-1.2847,0.3785,0.4656,-36.9,6.95,12.84,
70606,1661609419275,-1.2862,0.5431,0.9534,-38.78,21.0,12.13,
70607,1661609419275,-1.2027,0.4059,-0.0686,-32.9,6.11,7.29,
70608,1661609419275,-1.0455,0.7457,0.4505,-26.1,13.13,14.67,
70609,1661609419275,-1.1446,0.8507,0.9837,-23.41,22.6,9.2,
70610,1661609419275,-1.0738,0.7116,0.4959,-22.71,28.19,11.39,
70611,1661609419275,-0.9029,0.7731,-0.5686,-22.8,19.38,7.11,
70612,1661609419275,-1.044,0.902,0.3645,-20.71,35.54,5.64,
70613,1661609419275,-1.0064,1.0919,0.5154,-17.63,17.87,7.01,
70614,1661609419275,-0.8848,0.8019,-0.9407,-13.0,9.57,4.92,
70615,1661609419275,-0.7769,1.0211,0.1214,-12.01,23.36,4.74,
70616,1661609419275,-0.7906,1.0787,0.5012,-12.91,28.6,1.54,
70617,1661609419275,-0.8199,1.0451,-0.218,-12.21,21.17,-1.93,
70618,1661609419275,-0.6417,0.8297,-0.7243,-6.52,15.75,-3.19,
70619,1661609419275,-0.7686,0.9098,0.2166,-2.02,30.29,-5.85,
70620,1661609419275,-0.7467,0.9152,-0.0422,0.68,31.91,-6.93,
70621,1661609419275,-0.6803,0.4576,-0.8498,3.17,17.11,-7.3,
70622,1661609419275,-0.6929,0.566,-0.2097,0.5,17.11,-9.77,
70623,1661609419275,-0.7276,0.6032,-0.093,2.61,4.5,-10.85,
70624,1661609419275,-0.544,0.3468,-0.8147,3.08,-4.97,-8.86,
70625,1661609419275,-0.5758,0.2355,-0.7004,2.09,-2.51,-9.59,
70626,1661609419275,-0.7301,0.1212,-0.2463,-2.61,-1.84,-8.86,
70627,1661609419275,-0.7637,0.0245,-0.6076,1.52,-11.97,-11.57,
70628,1661609419275,-0.6754,0.0905,-0.1926,3.7,-7.67,-10.32,
70629,1661609419275,-0.5562,0.0031,-0.1853,4.5,-20.44,-8.95,
70630,1661609419275,-0.8053,-0.1288,-0.5891,-4.11,-14.45,-9.13,
70631,1661609419275,-0.7237,-0.1966,-0.0954,-3.12,-8.79,-9.22,
70632,1661609419275,-0.8804,-0.4217,-0.364,1.98,-13.09,-13.78,
70633,1661609419275,-0.8468,-0.1923,-0.5539,-3.73,-18.6,-13.51,
70634,1661609419275,-0.9874,-0.3514,-0.0002,-7.82,-5.73,-5.3,
70635,1661609419275,-0.7945,-0.4784,-0.3791,-10.29,-22.9,-7.85,
70636,1661609419275,-0.8907,-0.5912,-0.7688,-11.11,-24.85,-1.84,
70637,1661609419290,-0.9762,-0.3397,0.3284,-16.21,-16.55,-6.31,
70638,1661609419290,-1.0513,-0.6488,-0.1228,-21.0,-25.69,-0.83,
70639,1661609419290,-1.0489,-0.6625,-0.1282,-17.92,-23.16,-1.93,
70640,1661609419290,-1.0704,-0.5194,0.3762,-17.81,-11.65,-4.38,
70641,1661609419290,-1.0777,-0.64,0.2776,-27.7,-9.37,-4.66,
70642,1661609419290,-1.0548,-0.7635,-0.1692,-25.81,-15.29,-4.29,
70643,1661609419290,-1.1505,-0.8246,0.322,-18.8,-0.24,1.09,
70644,1661609419290,-1.3306,-0.6537,0.4353,-29.41,-8.69,2.09,
70645,1661609419290,-1.2525,-0.8221,-0.1423,-42.39,-30.77,3.37,
70646,1661609419290,-1.3599,-0.7201,0.4832,-36.9,-21.8,8.66,
70647,1661609419290,-1.3902,-0.5721,0.7039,-32.02,1.12,12.13,
70648,1661609419290,-1.1231,-0.6591,0.1209,-36.5,-10.82,11.94,
70649,1661609419290,-1.3399,-0.5096,0.3645,-45.08,-11.39,12.22,
70650,1661609419290,-1.315,-0.2508,1.284,-39.4,-20.44,16.32,
70651,1661609419290,-1.4576,-0.3881,0.2239,-36.3,0.02,12.13,
70652,1661609419290,-1.2432,-0.1527,0.6301,-42.0,16.68,9.47,
70653,1661609419290,-1.4713,-0.0233,0.8655,-44.51,15.32,9.2,
70654,1661609419290,-1.3565,0.1676,0.2034,-37.01,1.38,11.48,
70655,1661609419290,-1.4,0.0822,0.3938,-32.92,3.91,11.39,
70656,1661609419290,-1.1734,0.2384,0.7849,-38.0,15.92,7.93,
70657,1661609419290,-1.2564,0.484,0.301,-42.01,7.04,7.2,
70658,1661609419290,-1.1597,0.4816,0.2688,-39.69,17.11,7.38,
70659,1661609419290,-1.1622,0.5949,0.7229,-36.0,22.51,10.94,
70660,1661609419290,-1.1983,0.7511,0.3836,-30.7,22.86,11.85,
70661,1661609419290,-1.1226,0.7828,0.1795,-26.39,22.86,9.2,
70662,1661609419290,-0.9776,0.7467,0.3933,-25.0,28.86,7.93,
70663,1661609419290,-1.0064,0.8527,0.5794,-23.3,31.31,5.46,
70664,1661609419290,-0.9283,0.8409,-0.1267,-17.9,21.75,6.83,
70665,1661609419290,-0.7999,0.61,-0.3596,-17.81,21.5,9.75,
70666,1661609419290,-0.9771,0.7897,0.26,-15.71,30.98,7.84,
70667,1661609419290,-0.9303,0.7999,-0.1433,-15.67,20.42,5.75,
70668,1661609419290,-0.7174,0.7042,-0.4836,-11.2,3.82,6.56,
70669,1661609419290,-0.8238,0.6281,-0.0051,-12.52,9.57,7.47,
70670,1661609419306,-0.7418,0.8004,0.4578,-10.52,14.91,8.94,
70671,1661609419306,-0.753,0.7799,-0.5525,-9.21,16.42,2.27,
70672,1661609419306,-0.5318,0.6554,-0.1472,-6.31,25.56,0.36,
70673,1661609419306,-0.858,0.8029,0.4182,-4.31,29.12,-1.47,
70674,1661609419306,-0.7999,0.8986,-0.0481,-2.31,8.9,-3.01,
70675,1661609419306,-0.5802,0.5455,-1.0564,3.28,1.12,-1.01,
70676,1661609419306,-0.691,0.7194,-0.0373,-0.42,13.05,-3.56,
70677,1661609419306,-0.6256,0.7374,-0.4997,-1.12,-2.35,-4.11,
70678,1661609419306,-0.5006,0.4874,-0.8562,-1.7,7.21,-3.74,
70679,1661609419306,-0.5518,0.4601,-0.6316,3.99,3.24,-4.48,
70680,1661609419306,-0.6549,0.3204,-0.6965,3.47,-6.16,-5.21,
70681,1661609419306,-0.7262,0.4869,-0.1228,1.98,-6.33,-10.23,
70682,1661609419306,-0.6168,0.2804,-0.3664,2.68,-7.09,-9.22,
70683,1661609419306,-0.6895,-0.0184,-0.7302,-0.31,-7.5,-14.96,
70684,1661609419306,-0.7618,0.07,-0.2766,4.16,0.45,-10.32,
70685,1661609419306,-0.7984,-0.267,0.0476,5.67,5.6,-9.59,
70686,1661609419306,-0.7335,-0.3768,-0.3518,4.68,-10.3,-13.05,
70687,1661609419306,-0.8531,-0.5248,-0.9314,-0.9,-24.85,-11.04,
70688,1661609419306,-0.9298,-0.6571,0.2288,-3.61,-21.63,-13.42,
70689,1661609419306,-1.0211,-0.6151,0.0613,-11.62,-15.71,-4.38,
70690,1661609419306,-0.7769,-0.9188,-1.0515,-15.19,-29.58,-4.02,
70691,1661609419306,-1.0933,-0.7474,0.3631,-17.19,-23.66,-1.29,
70692,1661609419306,-1.0401,-0.6937,0.6887,-14.29,-28.23,1.9,
70693,1661609419306,-1.1153,-1.036,-0.9021,-20.1,-24.93,1.63,
70694,1661609419306,-1.0601,-0.6683,0.6082,-27.09,-13.26,1.17,
70695,1661609419306,-1.4317,-0.6693,0.9334,-22.6,-19.51,5.09,
70696,1661609419306,-1.0889,-0.7875,-0.8288,-20.59,-23.5,9.38,
70697,1661609419306,-1.234,-0.6556,0.1926,-30.11,-5.73,4.37,
70698,1661609419306,-1.2594,-0.3539,1.0374,-36.09,-6.41,8.3,
70699,1661609419306,-1.2379,-0.597,-0.6184,-28.6,-23.5,10.29,
70700,1661609419306,-1.1607,-0.5072,0.2254,-33.8,-6.83,8.66,
70701,1661609419306,-1.4,-0.4193,0.8274,-40.2,-9.37,11.67,
70702,1661609419306,-1.5035,-0.2484,0.5999,-40.5,-9.79,5.46,
70703,1661609419306,-1.3785,-0.3124,0.2664,-33.8,0.02,5.09,
70704,1661609419321,-1.379,-0.2987,0.6804,-33.21,7.97,9.29,
70705,1661609419321,-1.3712,-0.0111,0.7512,-35.71,14.32,7.56,
70706,1661609419321,-1.2945,-0.1854,0.615,-38.69,18.45,5.82,
70707,1661609419321,-1.2237,-0.1073,0.4055,-39.2,10.43,6.37,
70708,1661609419321,-1.3331,0.0763,0.2669,-38.3,7.21,5.73,
70709,1661609419321,-1.2589,0.0402,0.4558,-36.4,16.09,12.4,
70710,1661609419321,-1.3311,0.1271,0.6692,-36.58,15.58,9.1,
70711,1661609419321,-1.2706,0.1368,-0.0285,-37.48,0.78,14.03,
70712,1661609419321,-1.2662,0.3063,0.2796,-36.5,-5.23,12.31,
70713,1661609419321,-1.2681,0.6139,1.1194,-34.58,14.15,12.84,
70714,1661609419321,-1.1759,0.4191,-0.0398,-32.02,9.83,13.76,
70715,1661609419321,-1.1959,0.5494,-0.2287,-32.11,19.72,8.39,
70716,1661609419321,-0.9498,0.8888,0.9905,-26.31,27.85,8.66,
70717,1661609419321,-1.1373,0.6876,0.615,-19.11,23.7,5.27,
70718,1661609419321,-0.9522,0.817,-0.6008,-16.71,10.0,10.2,
70719,1661609419321,-1.0577,0.8732,0.3533,-19.81,25.3,6.83,
70720,1661609419321,-0.9869,1.0763,0.5047,-20.51,29.62,6.83,
70721,1661609419321,-0.8746,0.8204,-0.9499,-15.61,12.29,1.17,
70722,1661609419321,-0.7706,0.8463,-0.5183,-12.1,21.17,4.19,
70723,1661609419321,-0.776,1.089,0.5261,-7.02,26.49,3.92,
70724,1661609419321,-0.7911,0.9879,-0.3528,-7.91,21.41,1.54,
70725,1661609419321,-0.6676,0.8615,-0.5803,-5.33,21.75,-1.65,
70726,1661609419321,-0.7833,0.9142,0.2224,-6.99,22.34,-4.38,
70727,1661609419321,-0.7374,0.9025,-0.0837,3.7,25.13,-3.83,
70728,1661609419321,-0.6637,0.6534,-0.675,8.46,17.69,-8.67,
70729,1661609419321,-0.588,0.4108,-0.5881,6.88,24.54,-9.95,
70730,1661609419321,-0.6929,0.5861,-0.0954,2.09,14.82,-9.77,
70731,1661609419321,-0.6256,0.3302,-0.821,0.99,-4.3,-9.5,
70732,1661609419321,-0.6363,0.2389,-0.5788,5.28,-5.83,-10.23,
70733,1661609419321,-0.755,0.1857,-0.2082,3.98,-3.96,-9.4,
70734,1661609419321,-0.6754,0.0939,-0.4617,-0.23,-14.52,-5.57,
70735,1661609419321,-0.835,0.131,-0.4304,1.58,-0.82,-9.59,
70736,1661609419321,-0.5601,-0.0062,-0.0852,6.59,-4.54,-9.13,
70737,1661609419337,-0.8106,-0.0819,-0.5857,1.69,-18.6,-11.13,
70738,1661609419337,-0.7061,-0.0985,-0.3088,3.69,-13.59,-4.66,
70739,1661609419337,-0.9303,-0.4349,-0.4245,4.48,-10.98,-5.48,
70740,1661609419337,-0.8809,-0.1083,-0.3508,-2.22,-12.66,-9.31,
70741,1661609419337,-0.9234,-0.3368,-0.2951,-4.52,-23.33,-8.67,
70742,1661609419337,-0.7471,-0.4398,-0.4939,-7.91,-16.74,-6.22,
70743,1661609419337,-0.8609,-0.4896,-0.4651,-9.91,-19.44,-3.56,
70744,1661609419337,-0.9849,-0.4222,0.3167,-13.69,-16.48,-4.11,
70745,1661609419337,-1.0201,-0.6244,-0.1496,-11.2,-27.89,-2.74,
70746,1661609419337,-1.0968,-0.6483,-0.0178,-17.51,-19.18,-4.02,
70747,1661609419337,-1.127,-0.4716,0.3767,-20.71,-16.38,-2.92,
70748,1661609419337,-1.1637,-0.5306,0.3777,-16.71,-5.57,-2.29,
70749,1661609419337,-1.1407,-0.7982,0.0535,-18.89,-10.56,-2.02,
70750,1661609419337,-1.1627,-0.8231,-0.1135,-29.7,-21.97,-2.57,
70751,1661609419337,-1.1998,-0.6591,0.468,-20.59,-9.79,3.92,
70752,1661609419337,-1.3385,-0.7674,0.0276,-23.72,-11.39,3.0,
70753,1661609419337,-1.1119,-0.8387,-0.0559,-36.88,-18.51,6.65,
70754,1661609419337,-1.3673,-0.5858,0.7337,-39.42,-20.03,10.02,
70755,1661609419337,-1.1373,-0.6532,0.1458,-35.1,-20.63,15.68,
70756,1661609419337,-1.338,-0.5262,0.241,-36.78,-5.47,9.84,
70757,1661609419337,-1.3175,-0.3299,1.3274,-43.69,3.31,13.03,
70758,1661609419337,-1.5162,-0.3485,0.3157,-43.6,-15.45,12.58,
70759,1661609419337,-1.2554,-0.162,0.4026,-37.2,0.19,15.04,
70760,1661609419337,-1.4913,0.0387,0.9949,-38.59,19.72,11.48,
70761,1661609419337,-1.1778,0.2052,0.8211,-43.09,16.76,12.13,
70762,1661609419337,-1.211,0.0397,-0.0627,-37.1,2.72,16.05,
70763,1661609419337,-1.1822,0.2326,0.6116,-36.12,9.16,14.58,
70764,1661609419337,-1.3233,0.5924,0.5759,-37.42,6.11,10.75,
70765,1661609419337,-1.2515,0.4147,0.1135,-38.2,15.25,8.94,
70766,1661609419337,-1.1553,0.5729,0.596,-35.3,19.81,11.48,
70767,1661609419337,-1.0938,0.7135,0.7132,-32.4,25.99,11.39,
70768,1661609419337,-1.1676,0.8986,0.3635,-23.2,23.2,8.11,
70769,1661609419353,-0.9869,0.6945,0.115,-19.81,31.74,6.83,
70770,1661609419353,-0.9649,0.7257,0.6585,-21.72,34.27,5.27,
70771,1661609419353,-0.9971,0.8375,0.0613,-22.51,27.59,3.18,
70772,1661609419353,-0.838,0.5978,-0.4924,-18.3,16.25,0.64,
70773,1661609419353,-0.7847,0.6022,-0.1189,-16.29,20.07,2.63,
70774,1661609419353,-1.0201,0.9069,0.4558,-12.01,18.04,6.37,
70775,1661609419353,-0.7589,0.7277,-0.5451,-8.81,11.43,7.47,
70776,1661609419353,-0.774,0.653,-0.0549,-13.8,15.75,2.45,
70777,1661609419353,-0.7452,0.8082,0.697,-15.89,19.55,-0.83,
70778,1661609419353,-0.8092,0.8029,-0.6775,-8.2,3.48,-0.19,
70779,1661609419353,-0.5684,0.7033,-0.1233,-2.74,21.41,1.54,
70780,1661609419353,-0.6441,0.7286,0.5457,-3.3,32.32,-3.19,
70781,1661609419353,-0.8145,0.9406,-0.1262,-0.22,11.77,-8.12,
70782,1661609419353,-0.5553,0.548,-1.2302,4.6,3.41,-6.31,
70783,1661609419353,-0.6759,0.7535,0.3289,3.7,22.43,-6.58,
70784,1661609419353,-0.5977,0.7399,-0.6877,6.18,5.34,-4.57,
70785,1661609419353,-0.7442,0.4547,-1.3962,0.77,2.55,-4.84,
70786,1661609419353,-0.5191,0.5294,-0.3996,-0.51,11.52,-6.4,
70787,1661609419353,-0.67,0.4113,-0.2844,5.6,-7.67,-5.76,
70788,1661609419353,-0.7462,0.4469,-0.758,6.59,-10.82,-10.14,
70789,1661609419353,-0.5802,0.2828,-0.0847,7.49,6.11,-9.5,
70790,1661609419353,-0.6881,-0.0008,-0.4485,4.77,5.44,-12.41,
70791,1661609419353,-0.7262,0.0626,-0.8845,3.57,-12.25,-14.68,
70792,1661609419353,-0.7833,-0.1307,-0.2746,4.1,-3.61,-10.41,
70793,1661609419353,-0.7345,-0.4696,0.0164,7.5,-11.49,-10.23,
70794,1661609419353,-0.8873,-0.4432,-1.0847,0.38,-23.4,-13.88,
70795,1661609419353,-0.8956,-0.6971,0.0642,-5.41,-14.02,-10.05,
70796,1661609419353,-1.0474,-0.6151,0.346,-8.21,-21.56,-5.3,
70797,1661609419353,-0.7511,-0.8675,-1.2258,-12.99,-39.9,-0.65,
70798,1661609419353,-1.106,-0.7674,0.3386,-15.6,-19.27,-5.94,
70799,1661609419353,-1.0601,-0.6532,0.9417,-17.12,-27.98,-2.2,
70800,1661609419353,-1.1334,-0.9906,-1.0686,-14.61,-41.42,1.63,
70801,1661609419353,-1.0313,-0.6068,0.6292,-17.41,-7.43,1.35,
70802,1661609419353,-1.3756,-0.6981,0.9466,-23.11,-10.82,2.63,
70803,1661609419368,-1.0426,-0.7572,-0.9743,-20.71,-31.87,0.27,
70804,1661609419368,-1.2081,-0.6302,0.1619,-20.8,-14.19,2.82,
70805,1661609419368,-1.1607,-0.5336,1.0549,-30.51,-1.75,1.63,
70806,1661609419368,-1.2428,-0.4969,-0.008,-32.31,-24.26,5.64,
70807,1661609419368,-1.2203,-0.5614,-0.3132,-34.4,-10.72,8.2,
70808,1661609419368,-1.3726,-0.4667,0.8196,-34.79,-7.43,11.48,
70809,1661609419368,-1.4537,-0.2816,0.4592,-39.28,-4.97,3.09,
70810,1661609419368,-1.3858,-0.2728,0.5252,-33.89,-5.14,5.73,
70811,1661609419368,-1.3878,-0.2836,0.7405,-34.38,-0.48,4.83,
70812,1661609419368,-1.3555,-0.0961,0.6633,-35.79,8.64,8.57,
70813,1661609419368,-1.3282,-0.1288,0.7688,-38.2,22.6,6.19,
70814,1661609419368,-1.2564,-0.1634,0.6614,-37.3,23.2,4.92,
70815,1661609419368,-1.3712,-0.0443,0.2175,-41.29,4.92,6.1,
70816,1661609419368,-1.2779,-0.017,0.5003,-40.59,5.6,9.2,
70817,1661609419368,-1.3438,0.1246,0.6736,-34.11,3.41,12.58,
70818,1661609419368,-1.2696,0.1256,-0.0046,-37.1,6.87,12.31,
70819,1661609419368,-1.2398,0.2745,0.2986,-39.3,4.41,12.22,
70820,1661609419368,-1.2149,0.4786,0.8528,-38.61,15.08,11.3,
70821,1661609419368,-1.088,0.4913,0.6507,-30.89,5.6,14.22,
70822,1661609419368,-1.1392,0.5617,-0.1784,-25.9,14.65,7.75,
70823,1661609419368,-0.983,0.9108,0.8269,-23.7,30.29,9.2,
70824,1661609419368,-1.2174,0.695,0.5564,-22.4,28.86,12.4,
70825,1661609419368,-1.0128,0.8449,-0.5339,-21.9,7.3,7.65,
70826,1661609419368,-1.0367,0.9142,0.3103,-19.31,18.79,7.01,
70827,1661609419368,-0.9244,1.0392,0.78,-18.01,34.11,5.55,
70828,1661609419368,-0.8687,0.9293,-0.5076,-10.21,18.45,8.66,
70829,1661609419368,-0.793,0.777,-0.3977,-14.3,25.56,3.83,
70830,1661609419368,-0.7823,1.1696,0.5706,-13.0,22.77,4.56,
70831,1661609419382,-0.8204,0.9469,-0.4988,-9.91,15.66,0.18,
70832,1661609419382,-0.6627,0.882,-0.4094,-3.01,27.42,-0.28,
70833,1661609419382,-0.6119,0.9117,-0.0329,-3.01,34.27,1.9,
70834,1661609419382,-0.7227,0.9034,0.0799,-1.71,21.08,-4.84,
70835,1661609419382,-0.6524,0.65,-0.8254,5.69,5.6,-6.84,
70836,1661609419382,-0.65,0.3742,-0.4084,8.88,10.09,-5.76,
70837,1661609419382,-0.732,0.5807,-0.1413,6.88,12.03,-5.67,
70838,1661609419382,-0.6422,0.3053,-1.0119,3.67,1.54,-3.38,
70839,1661609419382,-0.4307,0.1442,-0.8821,-0.11,1.45,-4.57,
70840,1661609419382,-0.6788,0.2418,-0.0998,-0.49,-2.01,-3.1,
70841,1661609419382,-0.6934,0.1398,-0.5212,6.97,-20.03,-3.29,
70842,1661609419382,-0.795,0.0734,-0.5066,6.37,-19.1,-3.74,
70843,1661609419382,-0.5928,0.0988,0.1214,5.2,0.69,-4.2,
70844,1661609419382,-0.6783,-0.0008,-0.2712,3.08,-4.13,-4.93,
70845,1661609419382,-0.67,0.0387,-0.614,-1.01,-3.37,-6.84,
70846,1661609419382,-0.6412,-0.2797,-0.4104,5.28,-23.66,-4.38,
70847,1661609419382,-0.7813,-0.1981,-0.1614,4.09,-13.59,-5.12,
70848,1661609419391,-0.8658,-0.0975,-0.4231,1.69,-14.87,-3.38,
70849,1661609419391,-0.7769,-0.5199,-0.4123,-5.83,-8.79,-9.77,
70850,1661609419391,-0.8897,-0.3929,-0.447,-8.92,-27.13,-7.21,
70851,1661609419391,-1.0997,-0.4833,-0.0769,-7.91,-19.94,-4.93,
70852,1661609419391,-1.0782,-0.5394,0.1526,-14.5,-19.7,-2.83,
70853,1661609419391,-1.1383,-0.6849,-0.1765,-15.61,-20.87,-4.93,
70854,1661609419391,-1.1412,-0.5458,0.2136,-8.72,-15.12,-1.84,
70855,1661609419391,-1.129,-0.6005,0.3904,-13.87,-5.98,-5.28,
70856,1661609419391,-1.1441,-0.8627,-0.0115,-21.31,-10.22,-3.1,
70857,1661609419391,-1.2169,-0.7328,-0.1701,-16.51,-16.74,1.72,
70858,1661609419391,-1.1817,-0.7079,0.2,-22.21,-3.7,2.09,
70859,1661609419391,-1.3814,-0.809,0.5593,-34.31,-25.86,0.45,
70860,1661609419391,-1.3887,-0.8461,-0.2053,-32.81,-33.73,8.3,
70861,1661609419391,-1.2681,-0.7245,0.4119,-25.9,-8.6,11.67,
70862,1661609419391,-1.3331,-0.5692,0.8557,-30.78,3.57,9.56,
70863,1661609419391,-1.2872,-0.6717,-0.1741,-40.58,-22.82,10.66,
70864,1661609419391,-1.3717,-0.3788,0.949,-40.91,-8.69,8.02,
70865,1661609419391,-1.4532,-0.204,1.1951,-35.4,-4.54,12.93,
70866,1661609419391,-1.234,-0.2479,-0.1907,-35.69,6.87,11.76,
70867,1661609419391,-1.1744,-0.0316,0.7166,-41.29,14.22,13.67,
70868,1661609419391,-1.2095,0.215,1.136,-37.71,16.76,9.75,
70869,1661609419391,-1.4342,0.1525,0.3147,-34.41,-4.47,15.13,
70870,1661609419391,-1.2589,0.0504,-0.2092,-35.4,12.96,16.86,
70871,1661609419391,-1.2872,0.5128,1.1804,-40.3,18.54,12.03,
70872,1661609419391,-1.273,0.5192,0.2864,-39.02,10.67,11.21,
70873,1661609419391,-1.0084,0.4708,0.0291,-31.39,14.82,11.03,
70874,1661609419391,-1.0484,0.6832,0.9036,-28.51,30.46,10.11,
70875,1661609419391,-1.1583,0.859,0.3176,-32.31,28.69,7.65,
70876,1661609419391,-1.1519,0.7726,-0.1042,-24.71,20.57,9.47,
