srNo,timestamp,ax,ay,az,gx,gy,gz,temp
0,1661605309747,7.0,-0.575,0.1174,-19.86,-22.99,-4.24,
1,1661605309747,-1.0898,-1.0042,0.2102,-20.85,-7.67,-1.23,
2,1661605309747,-0.9897,-0.5809,-0.2098,-26.97,-9.12,-3.5,
3,1661605309747,-1.0371,-0.5355,-0.1429,-33.15,-8.52,-2.86,
4,1661605309747,-1.0459,-0.9359,-0.1707,-31.75,-18.76,-4.51,
5,1661605309747,-0.9067,-0.4988,-0.3816,-35.85,-25.19,3.33,
6,1661605309747,-1.0312,-0.3489,-0.0145,-38.36,-20.79,-3.32,
7,1661605309747,-1.1294,-0.7464,0.2624,-39.55,-15.71,6.7,
8,1661605309747,-1.2143,-0.553,0.5041,-43.76,-9.96,5.88,
9,1661605309747,-1.1938,-0.1844,0.7336,-52.04,-8.19,6.7,
10,1661605309747,-1.2505,-0.4842,0.6262,-46.87,-1.34,4.16,
11,1661605309747,-1.2222,-0.4876,0.7443,-42.44,11.7,2.14,
12,1661605309747,-1.2607,-0.1463,0.5847,-47.34,11.36,1.32,
13,1661605309747,-1.2783,-0.1785,0.5017,-48.37,5.44,5.06,
14,1661605309747,-1.2671,-0.5399,0.4182,-50.15,-0.48,9.16,
15,1661605309747,-1.2734,-0.3109,0.3894,-50.55,-6.16,5.79,
16,1661605309747,-1.1977,-0.1009,0.3615,-54.15,-5.64,5.51,
17,1661605309747,-1.3091,-0.3958,0.4836,-50.14,-1.66,6.81,
18,1661605309747,-1.1382,-0.2454,0.4904,-54.45,-0.24,11.45,
19,1661605309747,-1.1523,0.2155,0.5842,-56.36,5.01,12.55,
20,1661605309747,-1.3227,0.2468,0.654,-52.24,11.6,14.46,
21,1661605309747,-1.2114,0.0226,0.5661,-50.75,17.36,13.17,
22,1661605309747,-1.1372,0.4792,0.5124,-49.25,25.64,14.09,
23,1661605309747,-1.0517,0.7438,0.3762,-44.57,30.81,10.44,
24,1661605309747,-0.9282,0.5651,0.1125,-39.27,32.32,7.89,
25,1661605309747,-0.9927,0.8093,-0.1395,-39.74,21.41,6.98,
26,1661605309747,-0.8926,0.9655,-0.0091,-39.16,18.04,6.8,
27,1661605309747,-1.0586,1.092,0.2297,-30.65,22.01,9.8,
28,1661605309747,-1.0361,0.8405,-0.0057,-28.65,14.91,7.8,
29,1661605309747,-0.9492,1.0304,-0.2576,-28.54,20.42,6.35,
30,1661605309747,-0.9819,1.1794,0.5812,-22.99,37.57,6.06,
31,1661605309747,-0.9453,0.7678,-0.2894,-15.56,25.23,7.44,
32,1661605309747,-0.7383,1.0446,-0.1482,-18.96,32.68,6.61,
33,1661605309747,-0.8735,1.0134,-0.0735,-18.78,29.53,5.97,
34,1661605309747,-0.9087,0.8346,-0.3836,-15.38,27.0,5.6,
35,1661605309747,-0.8237,0.6052,-0.6253,-5.17,18.21,3.42,
36,1661605309747,-0.811,0.6833,-0.3963,-3.69,14.32,0.78,
37,1661605309747,-0.8037,0.6452,-0.7063,-4.86,-6.66,2.05,
38,1661605309747,-0.7163,0.2614,-0.5521,-9.18,0.02,1.68,
39,1661605309747,-0.7983,0.3708,-0.2308,-8.28,-2.51,1.87,
40,1661605309747,-0.706,0.4889,-0.3953,-9.36,-0.57,0.87,
41,1661605309747,-0.7568,0.3625,-0.3353,-6.88,-3.27,-1.6,
42,1661605309747,-0.9136,0.1398,-0.1214,-4.47,1.88,-1.96,
43,1661605309747,-0.5776,0.3263,-0.5081,-4.07,-8.26,1.87,
44,1661605309747,-0.4111,0.3283,-0.4266,-3.87,-8.43,-0.32,
45,1661605309747,-0.8574,0.1554,-0.4427,-4.68,-4.54,-0.32,
46,1661605309747,-0.7773,-0.0028,-0.8812,-1.57,7.64,-5.98,
47,1661605309747,-0.6699,0.0724,-0.6707,-4.39,-3.87,-6.69,
48,1661605309747,-0.854,-0.1356,-0.0911,-10.37,-17.07,-9.81,
49,1661605309747,-0.7471,-0.161,-0.7938,-11.87,-41.09,-2.86,
50,1661605309747,-0.9121,-0.2327,-0.3831,-12.78,6.71,-10.54,
51,1661605309747,-1.0347,-0.2078,0.3542,-19.57,-2.1,-5.88,
52,1661605309747,-1.0337,-0.4486,-0.3992,-20.96,-19.6,-5.7,
53,1661605309747,-0.9492,-0.3817,0.3103,-22.97,-13.77,-6.69,
54,1661605309747,-1.0962,-0.4129,0.0588,-23.66,-11.32,-9.07,
55,1661605309747,-1.0015,-0.6727,-0.2786,-24.67,-5.39,-2.6,
56,1661605309747,-1.0195,-0.6693,0.1711,-25.37,-2.34,-3.23,
57,1661605309747,-1.0874,-0.6976,-0.0696,-34.24,-25.6,-1.67,
58,1661605309747,-1.1011,-0.8489,-0.3353,-37.87,-24.59,0.6,
59,1661605309747,-1.1001,-0.7923,0.4831,-42.66,-14.28,-0.5,
60,1661605309747,-1.3218,-0.8245,0.1652,-45.77,-24.85,3.61,
61,1661605309747,-1.0967,-0.7884,0.3483,-46.76,-21.13,2.78,
62,1661605309747,-1.2964,-0.6844,0.9606,-49.77,-9.53,-0.04,
63,1661605309747,-1.2656,-0.5623,0.7819,-52.87,-5.64,-1.69,
64,1661605309747,-1.3452,-0.4573,0.2492,-53.93,-5.04,0.16,
65,1661605309747,-1.1518,-0.4486,0.7224,-55.57,8.14,1.41,
66,1661605309747,-1.2822,-0.1981,0.5539,-53.26,3.49,2.6,
67,1661605309747,-1.2368,-0.0487,0.0559,-49.36,-1.24,1.41,
68,1661605309747,-1.2978,-0.1199,0.5764,-51.16,1.21,3.42,
69,1661605309747,-1.2231,0.1139,0.7438,-54.35,6.28,4.43,
70,1661605309747,-1.2871,0.1681,0.1848,-55.55,-3.7,7.53,
71,1661605309747,-1.1924,0.216,0.3703,-55.75,14.06,7.16,
72,1661605309747,-1.1948,0.3293,1.0021,-52.55,16.59,8.9,
73,1661605309747,-1.1357,0.5236,0.3371,-47.34,16.94,8.9,
74,1661605309747,-1.1533,0.5651,0.635,-43.47,26.16,6.15,
75,1661605309747,-1.0996,0.5387,0.8908,-42.35,32.92,6.61,
76,1661605309747,-1.209,0.5773,0.5842,-42.05,25.73,8.72,
77,1661605309747,-1.1504,0.6276,-0.2225,-39.06,31.49,5.24,
78,1661605309747,-0.9726,0.5925,-0.1307,-35.15,37.31,4.34,
79,1661605309747,-0.9175,0.5519,-0.3816,-31.69,37.91,7.25,
80,1661605309747,-0.7759,0.7433,-0.6146,-34.17,25.06,7.07,
81,1661605309747,-0.8349,0.6003,-0.2195,-29.46,16.68,12.27,
82,1661605309747,-0.9907,0.5021,-0.1961,-25.66,-0.48,12.73,
83,1661605309747,-1.0264,0.7121,-0.1438,-23.58,-3.03,12.73,
84,1661605309747,-1.0322,0.7326,0.2126,-20.85,-0.65,1.06,
85,1661605309747,-0.9189,0.6266,0.3459,-18.46,10.76,5.51,
86,1661605309747,-0.9819,0.7941,0.0373,-14.25,14.58,2.52,
87,1661605309747,-0.7431,0.8854,0.4392,-11.04,37.59,2.34,
88,1661605309747,-0.873,0.5905,0.0183,-6.98,27.93,1.23,
89,1661605309747,-0.8418,0.5617,-0.4529,-7.06,19.55,-1.6,
90,1661605309747,-0.6699,0.9172,-0.6419,-10.57,6.03,-1.32,
91,1661605309747,-0.7998,0.9426,-0.5652,-10.66,-3.87,-1.69,
92,1661605309747,-0.6821,0.5607,-1.199,-9.18,-25.69,2.51,
93,1661605309747,-0.7192,0.6408,-0.7581,-0.07,-1.84,4.06,
94,1661605309747,-0.7422,0.8351,0.0153,2.03,7.38,1.41,
95,1661605309747,-0.7217,0.6935,-0.4012,-0.59,2.31,-1.32,
96,1661605309747,-0.6435,0.3029,-0.2884,-15.16,5.18,-4.97,
97,1661605309747,-0.7056,0.4015,0.2238,-13.56,-2.34,-11.62,
98,1661605309747,-0.7632,0.2355,-0.386,0.23,-0.65,-6.79,
99,1661605309747,-0.8989,-0.0623,-0.3172,3.22,18.21,-12.63,
100,1661605309747,-0.9394,-0.0765,0.0153,-3.38,22.51,-10.8,
101,1661605309747,-1.0156,-0.3695,-0.8777,-8.46,-9.03,-12.08,
102,1661605309747,-0.876,-0.6229,-0.5384,-5.96,-26.96,-11.44,
103,1661605309747,-1.041,-0.6038,-0.2557,-14.77,-20.36,-9.62,
104,1661605309747,-0.8545,-0.4915,-0.6082,-24.87,-22.13,-6.62,
105,1661605309747,-1.0586,-0.805,0.0847,-20.56,-35.59,-2.15,
106,1661605309747,-1.1128,-0.9349,0.4621,-19.68,-15.88,2.14,
107,1661605309747,-1.0356,-0.7215,-0.0057,-30.85,-16.55,-3.5,
108,1661605309747,-1.0264,-0.6243,-0.1048,-34.36,-5.06,-2.33,
109,1661605309747,-1.0864,-0.8885,0.55,-32.85,-8.86,-1.05,
110,1661605309747,-0.9258,-0.7005,-0.3509,-39.65,-17.4,-2.6,
111,1661605309747,-0.9516,-0.4134,-0.3284,-43.15,-6.92,-0.77,
112,1661605309747,-1.1836,-0.6209,0.5388,-40.17,-17.4,-1.14,
113,1661605309747,-1.1699,-0.5428,-0.3182,-45.04,-37.26,-3.12,
114,1661605309747,-1.1489,-0.2415,0.3391,-49.27,-15.54,3.33,
115,1661605309747,-1.3335,-0.4183,0.7219,-50.14,-5.62,-1.49,
116,1661605309747,-1.2431,-0.4534,0.3566,-50.15,-8.35,1.06,
117,1661605309747,-1.2051,-0.0789,0.967,-52.04,-0.65,-0.41,
118,1661605309747,-1.2886,-0.2694,0.8293,-49.74,-1.06,3.35,
119,1661605309747,-1.3882,-0.5081,0.404,-50.68,9.57,4.34,
120,1661605309747,-1.2016,-0.1107,0.802,-51.52,21.6,5.25,
121,1661605309747,-1.2612,-0.0506,0.7385,-53.54,16.26,1.06,
122,1661605309747,-1.3428,-0.3524,0.2033,-53.25,3.82,4.34,
123,1661605309747,-1.1167,-0.2625,0.1672,-55.06,4.58,11.63,
124,1661605309747,-1.0273,0.1169,0.2175,-56.04,9.07,10.44,
125,1661605309747,-1.1841,0.1262,-0.1526,-55.95,6.54,11.36,
126,1661605309747,-1.104,0.0563,0.3649,-52.24,13.47,10.9,
127,1661605309747,-1.0693,0.4992,0.5866,-51.07,16.01,11.27,
128,1661605309747,-1.0864,0.6139,0.3669,-48.37,15.33,13.36,
129,1661605309747,-1.1172,0.5226,0.2619,-44.25,15.83,12.18,
130,1661605309747,-0.9531,0.6916,0.7038,-41.07,19.98,11.63,
131,1661605309747,-0.8198,0.9079,0.0075,-33.47,12.29,12.99,
132,1661605309747,-1.0342,0.9753,0.0183,-29.66,14.56,14.64,
133,1661605309747,-0.9863,0.799,0.6096,-26.47,36.48,12.09,
134,1661605309747,-0.8506,1.133,-0.2981,-22.38,27.59,10.81,
135,1661605309747,-0.8569,1.0661,-0.5242,-24.38,32.84,7.53,
136,1661605309747,-0.8638,0.9704,0.2238,-21.28,12.96,5.33,
137,1661605309747,-0.8105,0.8625,-0.2757,-17.88,7.54,1.87,
138,1661605309747,-0.6806,1.0588,-0.5325,-17.36,6.78,3.7,
139,1661605309747,-0.8647,0.9802,-0.117,-10.87,25.14,1.5,
140,1661605309747,-0.8003,0.695,-0.2967,-6.68,26.92,-2.15,
141,1661605309747,-0.8037,0.7048,-0.5701,-3.96,14.32,-4.24,
142,1661605309747,-0.7446,0.7165,-0.4124,-7.17,8.9,-7.7,
143,1661605309747,-0.8003,0.5427,-0.2386,-4.47,3.65,-1.05,
144,1661605309747,-0.8442,0.3869,-0.4578,-5.08,5.44,-4.05,
145,1661605309747,-0.6387,0.4777,-0.4891,-6.66,3.49,-2.86,
146,1661605309747,-0.8623,0.3122,-0.2322,-3.06,0.1,-4.24,
147,1661605309747,-0.873,0.1691,-0.4788,0.13,-7.09,-3.87,
148,1661605309747,-0.8379,0.1887,-0.4251,-1.17,-3.37,-4.24,
149,1661605309747,-0.6411,0.2936,-0.3226,-5.47,-3.53,-7.24,
150,1661605309747,-0.6675,0.0881,-0.3475,-6.56,0.54,-6.68,
151,1661605309747,-0.8437,0.0246,-0.5223,-1.66,-3.69,-6.05,
152,1661605309747,-0.6982,0.0236,-0.5145,-4.66,-7.33,-6.53,
153,1661605309747,-0.9048,-0.2137,-0.1805,-7.27,-9.29,-7.88,
154,1661605309747,-0.834,-0.2542,-0.6351,-10.77,-19.27,-7.33,
155,1661605309747,-0.772,-0.2674,-0.3621,-13.76,-12.15,-9.9,
156,1661605309747,-0.9062,-0.2825,0.0026,-19.97,-6.49,-6.25,
157,1661605309747,-0.957,-0.3494,-0.4617,-24.76,-22.73,-2.33,
158,1661605309747,-0.9424,-0.4442,-0.1404,-24.26,-11.82,-3.32,
159,1661605309747,-1.0395,-0.3685,0.3137,-23.17,-19.94,-4.79,
160,1661605309747,-1.0171,-0.5809,-0.2,-29.35,-14.11,-9.26,
161,1661605309747,-0.9834,-0.5604,0.2502,-27.96,-8.78,-5.52,
162,1661605309747,-1.0605,-0.6546,0.302,-30.18,-13.51,-8.62,
163,1661605309747,-1.105,-0.7635,-0.3167,-36.37,-19.6,-7.7,
164,1661605309747,-1.0688,-0.7347,0.4865,-40.95,-12.32,-5.34,
165,1661605309747,-1.2905,-0.8201,0.3425,-43.56,-23.75,1.41,
166,1661605309747,-1.1401,-0.8016,0.0183,-46.76,-15.21,3.7,
167,1661605309747,-1.2578,-0.8153,0.7824,-49.07,-8.69,5.6,
168,1661605309747,-1.1118,-0.6605,0.3488,-54.87,-10.81,8.44,
169,1661605309747,-1.2265,-0.5374,0.0979,-54.27,-10.22,9.89,
170,1661605309747,-1.2451,-0.4915,0.8103,-56.56,5.61,12.55,
171,1661605309747,-1.1489,-0.2405,0.1018,-56.67,0.19,11.54,
172,1661605309747,-1.1787,-0.1688,-0.1053,-56.16,-1.0,11.45,
173,1661605309747,-1.2373,-0.1751,0.571,-54.85,-0.91,11.82,
174,1661605309747,-1.2139,0.0002,0.4118,-50.55,-0.24,12.64,
175,1661605309747,-1.167,0.1076,0.2155,-49.97,10.6,14.0,
176,1661605309747,-1.1572,0.2243,0.8298,-56.24,17.11,11.63,
177,1661605309747,-1.0986,0.3561,0.4323,-55.77,4.75,11.27,
178,1661605309747,-1.0264,0.4592,0.3479,-49.25,11.19,7.89,
179,1661605309747,-1.1015,0.6242,0.8923,-44.95,21.17,8.81,
180,1661605309747,-1.1802,0.5842,0.6613,-41.35,22.1,6.98,
181,1661605309747,-1.1343,0.6227,0.1574,-41.27,25.06,4.43,
182,1661605309747,-1.0488,0.7512,0.4016,-40.05,33.09,2.78,
183,1661605309747,-0.9521,0.5876,-0.0115,-33.55,28.36,5.06,
184,1661605309747,-0.8999,0.6554,-0.3792,-33.15,17.28,6.34,
185,1661605309747,-0.8208,0.6911,-0.0257,-29.76,20.32,8.63,
186,1661605309747,-0.8672,0.6584,-0.0052,-25.97,15.33,5.15,
187,1661605309747,-1.0312,0.6203,-0.3597,-25.08,9.33,4.98,
188,1661605309747,-0.8735,0.7658,0.0129,-26.26,7.21,10.9,
189,1661605309762,-1.0151,0.696,0.1843,-23.95,8.64,6.52,
190,1661605309762,-1.0117,0.6652,-0.0159,-18.17,13.8,8.63,
191,1661605309762,-0.916,0.7682,-0.0203,-13.88,12.79,3.7,
192,1661605309762,-0.7671,0.8239,0.2658,-11.15,19.4,7.27,
193,1661605309762,-0.9346,0.7013,0.0773,-5.69,15.92,7.34,
194,1661605309762,-0.7685,0.6901,-0.4788,-5.78,16.09,7.34,
195,1661605309762,-0.7383,0.8293,-0.3177,-7.56,19.31,7.62,
196,1661605309762,-0.7578,0.7775,-0.5052,-7.98,9.83,4.34,
197,1661605309762,-0.6821,0.6457,-0.9754,-4.77,-10.81,4.25,
198,1661605309762,-0.7734,0.572,-0.5457,-3.69,5.85,3.06,
199,1661605309762,-0.811,0.7106,-0.1277,-2.09,-8.78,-1.69,
200,1661605309762,-0.7265,0.5363,-0.8992,-3.18,-1.08,-2.51,
201,1661605309762,-0.727,0.466,0.0607,-9.26,10.67,-4.33,
202,1661605309762,-0.7856,0.4323,-0.3216,-8.16,6.11,-8.71,
203,1661605309762,-0.6523,0.2653,-0.6917,-2.38,2.56,-12.9,
204,1661605309762,-0.7622,0.1838,-0.3519,0.31,2.31,-13.36,
205,1661605309762,-0.9194,0.027,-0.056,-0.88,0.19,-14.72,
206,1661605309762,-0.9761,-0.2449,-0.8431,-5.87,-15.21,-11.71,
207,1661605309762,-0.9853,-0.4334,-0.3089,-7.06,-5.64,-8.98,
208,1661605309762,-1.0815,-0.5941,-0.2166,-11.88,-21.55,-10.26,
209,1661605309762,-0.9077,-0.5853,-0.6434,-20.46,-29.84,-6.69,
210,1661605309762,-1.02,-0.6727,0.1379,-21.68,-22.23,-3.96,
211,1661605309762,-1.0893,-0.9036,0.197,-26.16,-21.97,-3.69,
212,1661605309762,-1.0522,-0.7313,-0.2186,-29.96,-25.26,-2.7,
213,1661605309762,-1.0732,-0.7728,0.3806,-31.57,-10.98,-4.05,
214,1661605309762,-1.1943,-0.8616,0.2043,-35.17,-13.94,-0.32,
215,1661605309762,-1.0527,-0.6409,-0.2449,-40.64,-15.04,-0.04,
216,1661605309762,-1.1045,-0.5579,0.0603,-38.87,-19.69,-6.43,
217,1661605309762,-1.1489,-0.6497,0.2141,-43.07,-18.5,2.32,
218,1661605309762,-1.1406,-0.5252,-0.22,-49.56,-30.34,2.6,
219,1661605309762,-1.1133,-0.2889,0.5676,-48.55,-4.54,-0.68,
220,1661605309762,-1.2607,-0.4569,0.5451,-46.55,-6.07,2.42,
221,1661605309762,-1.3564,-0.4671,0.3063,-54.04,-8.02,3.61,
222,1661605309762,-1.2388,-0.1878,0.6892,-56.35,-0.57,3.06,
223,1661605309778,-1.2949,-0.0775,0.9265,-50.75,9.74,3.51,
224,1661605309778,-1.2944,-0.3475,0.2214,-46.93,16.03,4.99,
225,1661605309778,-1.1665,-0.1268,0.6437,-49.45,28.43,2.87,
226,1661605309778,-1.186,-0.1229,0.2409,-51.16,16.35,7.07,
227,1661605309782,-1.1533,-0.2513,-0.1639,-47.77,11.1,4.16,
228,1661605309782,-1.0141,-0.1561,0.3068,-50.35,8.14,7.71,
229,1661605309782,-1.1367,-0.0931,0.3063,-56.35,1.12,5.97,
230,1661605309782,-1.1523,0.0275,-0.1492,-54.16,-8.69,11.82,
231,1661605309782,-1.1094,0.0251,0.4963,-49.14,2.48,15.0,
232,1661605309782,-1.209,0.3093,0.9191,-50.96,7.88,14.18,
233,1661605309782,-1.2568,0.5202,0.4377,-52.06,6.95,12.09,
234,1661605309782,-1.1123,0.4284,0.8361,-43.06,17.62,12.36,
235,1661605309782,-1.0561,0.5085,1.0246,-37.46,29.72,12.46,
236,1661605309782,-0.9971,0.863,0.2106,-36.26,28.43,8.98,
237,1661605309782,-0.6763,0.9206,-0.1956,-30.95,32.16,3.61,
238,1661605309782,-1.0649,0.8303,0.1828,-29.06,14.15,7.16,
239,1661605309782,-1.0347,0.9787,-0.4271,-28.24,8.66,7.09,
240,1661605309782,-0.8296,1.1403,-0.9295,-18.37,5.52,8.26,
241,1661605309782,-0.8452,0.9933,-0.3274,-15.36,37.74,1.13,
242,1661605309782,-0.8647,0.9318,0.2033,-17.88,16.01,4.89,
243,1661605309782,-0.7895,0.9186,-0.6019,-21.28,7.88,1.68,
244,1661605309782,-0.6665,1.1325,0.3581,-15.86,13.56,-5.52,
245,1661605309782,-0.8911,0.9362,0.2102,-4.79,20.41,-4.79,
246,1661605309782,-0.7783,0.7931,-0.5066,-3.87,21.84,-5.98,
247,1661605309782,-0.8193,0.8732,-0.0042,-7.27,32.08,-5.15,
248,1661605309782,-0.75,0.7448,0.1057,-4.8,24.3,-4.6,
249,1661605309782,-0.8296,0.5173,-0.7879,0.43,5.35,-8.34,
250,1661605309782,-0.6826,0.5217,-0.5359,2.65,1.4,-7.04,
251,1661605309782,-0.7983,0.3176,-0.4891,1.32,-8.26,-5.52,
252,1661605309782,-0.7998,0.1965,-0.7679,-1.57,-16.05,-1.32,
253,1661605309782,-0.9087,0.1437,-0.2576,-5.95,-7.24,-6.68,
254,1661605309782,-0.8437,0.1808,-0.0721,-6.49,-5.06,-2.42,
255,1661605309782,-0.7422,0.0729,-0.4373,-4.39,-14.44,-4.33,
256,1661605309782,-0.8911,-0.0721,-0.2161,-2.48,-3.44,-5.7,
257,1661605309782,-0.8027,0.0319,-0.1063,-6.59,-6.23,-7.43,
258,1661605309782,-0.8589,-0.1507,-0.3987,-11.27,-4.04,-6.43,
259,1661605309782,-0.9399,-0.2825,-0.2859,-8.77,-13.51,-7.88,
260,1661605309782,-0.7661,-0.2772,-0.4993,-11.87,-20.44,-5.43,
261,1661605309782,-0.8979,-0.2757,-0.3631,-16.06,-18.0,-2.6,
262,1661605309782,-0.9658,-0.3988,-0.2825,-18.15,-11.9,-5.6,
263,1661605309797,-0.9746,-0.5238,-0.1839,-22.36,-20.03,-4.79,
264,1661605309797,-1.0913,-0.47,-0.012,-30.07,-26.71,-9.26,
265,1661605309797,-1.1382,-0.5443,0.0725,-30.16,-15.11,-5.34,
266,1661605309797,-1.0947,-0.6395,0.2517,-32.97,-4.3,-7.88,
267,1661605309797,-1.1806,-0.6014,0.174,-32.16,-7.33,-7.79,
268,1661605309797,-1.2217,-0.6292,0.0686,-34.54,-10.28,-1.31,
269,1661605309797,-1.1494,-0.7357,0.1833,-39.27,-7.16,-1.6,
270,1661605309797,-1.1977,-0.7547,0.0803,-42.35,-12.66,1.41,
271,1661605309797,-1.1665,-0.7708,0.0422,-45.45,-8.02,-3.41,
272,1661605309797,-1.2378,-0.742,0.2526,-48.24,-16.05,0.97,
273,1661605309797,-1.1528,-0.742,0.3469,-51.45,-16.98,3.88,
274,1661605309797,-1.2729,-0.6121,0.3312,-53.34,-16.05,5.33,
275,1661605309797,-1.3476,-0.5521,0.6911,-54.45,-5.23,5.42,
276,1661605309797,-1.2978,-0.4593,0.6647,-53.14,-4.54,6.43,
277,1661605309797,-1.0874,-0.2176,0.5905,-55.25,-0.74,5.15,
278,1661605309797,-1.1846,-0.1229,0.6691,-54.74,4.51,9.16,
279,1661605309797,-1.1826,-0.1126,0.5886,-54.15,6.37,10.08,
280,1661605309797,-1.1733,-0.0096,0.2536,-50.55,5.68,11.17,
281,1661605309797,-1.1987,0.1169,0.6062,-52.04,14.56,10.9,
282,1661605309797,-1.1963,0.3493,0.5388,-50.46,8.06,9.89,
283,1661605309797,-0.977,0.3932,-0.0584,-51.14,7.54,14.09,
284,1661605309797,-1.0893,0.5417,0.51,-49.25,13.05,11.17,
285,1661605309797,-1.1245,0.7092,0.4768,-43.25,19.22,11.82,
286,1661605309797,-1.0752,0.6896,0.1862,-39.26,18.38,8.81,
287,1661605309797,-0.9541,0.7721,0.2917,-38.26,31.49,5.42,
288,1661605309797,-1.0283,0.7853,0.4201,-34.56,31.32,8.63,
289,1661605309797,-0.958,0.7585,-0.1741,-31.35,30.72,7.25,
290,1661605309797,-0.8647,0.7961,0.0925,-26.38,28.02,4.52,
291,1661605309797,-1.0024,0.7096,0.0334,-21.88,22.18,7.53,
292,1661605309797,-1.0283,0.717,-0.2273,-20.27,11.27,8.53,
293,1661605309797,-0.8686,0.7619,-0.1653,-18.78,17.45,6.25,
294,1661605309797,-0.9468,0.61,0.1027,-17.68,16.85,10.44,
295,1661605309797,-0.9682,0.654,-0.1805,-16.86,10.67,4.43,
296,1661605309797,-0.9375,0.7272,-0.1136,-17.28,7.47,2.97,
297,1661605309813,-0.8164,0.6984,0.2102,-13.36,7.38,7.07,
298,1661605309813,-0.9643,0.6174,-0.2366,-8.98,9.5,3.42,
299,1661605309813,-0.9199,0.672,-0.4305,-4.86,14.73,6.34,
300,1661605309813,-0.7734,0.7844,-0.2728,-7.36,20.24,-0.68,
301,1661605309813,-0.8296,0.7419,-0.3694,-7.27,14.4,-1.51,
302,1661605309813,-0.6445,0.6994,-1.0853,-4.37,-7.59,-1.41,
303,1661605309813,-0.7139,0.6799,-0.2098,-1.57,9.74,0.14,
304,1661605309813,-0.8447,0.7072,-0.0438,-1.69,-3.27,0.69,
305,1661605309813,-0.7749,0.5241,-1.1795,-1.67,-18.33,-5.98,
306,1661605309813,-0.8071,0.5827,-0.1404,-7.58,0.28,-5.88,
307,1661605309813,-0.9214,0.3854,-0.032,-3.47,1.88,-8.34,
308,1661605309813,-0.6767,0.2385,-0.9241,-1.26,1.21,-7.43,
309,1661605309813,-0.7749,0.3488,0.1364,-4.48,14.91,-12.63,
310,1661605309813,-0.8706,-0.015,-0.3694,-5.78,-4.89,-11.35,
311,1661605309813,-0.8179,-0.2449,-0.8636,-6.07,-13.51,-13.27,
312,1661605309813,-0.8974,-0.3865,0.0397,-4.66,-1.17,-9.17,
313,1661605309813,-1.0371,-0.4837,-0.1429,-8.08,-12.49,-9.62,
314,1661605309813,-0.9717,-0.5618,-0.8187,-15.97,-26.12,-9.53,
315,1661605309813,-0.98,-0.7176,0.0319,-21.86,-28.39,-6.69,
316,1661605309813,-1.0395,-0.8138,0.1159,-24.47,-30.6,-7.33,
317,1661605309813,-0.9795,-0.762,-0.4168,-29.17,-24.33,-4.15,
318,1661605309813,-1.1001,-0.8543,0.4348,-33.75,-10.98,-0.77,
319,1661605309813,-1.208,-0.7781,0.3947,-35.26,-25.52,-5.7,
320,1661605309813,-1.1924,-0.7425,-0.0711,-37.15,-19.34,-0.13,
321,1661605309813,-0.9575,-0.5975,0.3161,-40.95,-6.83,-1.6,
322,1661605309813,-1.0278,-0.6238,0.1022,-44.44,-13.77,-2.24,
323,1661605309813,-1.1333,-0.6483,-0.2483,-45.86,-28.05,1.77,
324,1661605309813,-1.1372,-0.4373,0.5744,-46.37,-7.93,1.41,
325,1661605309813,-1.2461,-0.4378,0.5031,-48.55,-10.13,1.87,
326,1661605309813,-1.1338,-0.4691,0.0056,-50.24,-10.89,4.52,
327,1661605309813,-1.2602,-0.1868,1.1096,-51.46,3.49,4.7,
328,1661605309813,-1.3423,-0.1546,1.1062,-49.86,0.69,1.41,
329,1661605309813,-1.2676,-0.2977,0.1379,-48.64,2.89,1.96,
330,1661605309829,-1.1987,-0.1195,0.8527,-49.77,21.08,3.88,
331,1661605309829,-1.3017,-0.119,0.6672,-49.65,14.49,6.06,
332,1661605309829,-1.1265,-0.1258,-0.0789,-47.54,12.96,4.7,
333,1661605309829,-1.0605,-0.0096,0.5832,-47.43,20.09,12.29,
334,1661605309829,-1.1318,0.03,0.1613,-50.46,7.04,12.73,
335,1661605309829,-1.1211,-0.0203,-0.1258,-52.18,-4.13,16.1,
336,1661605309829,-1.0317,0.0295,0.3322,-49.46,10.43,15.83,
337,1661605309829,-1.1689,0.2687,0.7517,-47.95,3.24,14.82,
338,1661605309829,-1.2344,0.4528,0.2214,-44.75,2.89,10.08,
339,1661605309829,-1.164,0.3327,0.7453,-41.97,19.9,18.93,
340,1661605309829,-1.0674,0.5827,0.7917,-41.97,29.36,15.65,
341,1661605309829,-1.0098,0.8537,-0.1219,-37.36,24.38,14.91,
342,1661605309829,-0.7876,0.798,0.2468,-26.45,26.24,10.63,
343,1661605309829,-0.813,0.7878,0.382,-19.04,38.61,13.74,
344,1661605309829,-0.6987,0.9655,-0.3401,-19.97,48.65,7.34,
345,1661605309829,-0.7441,1.0905,-0.7317,-23.97,16.76,5.51,
346,1661605309829,-0.8598,0.9064,0.0319,-25.66,4.92,0.14,
347,1661605309829,-0.8667,0.9841,-0.4632,-16.66,-14.18,4.06,
348,1661605309829,-0.8335,1.0295,-0.448,-6.27,23.03,4.89,
349,1661605309829,-0.7783,1.0407,0.4279,-5.69,30.98,1.41,
350,1661605309829,-0.8818,0.9181,0.1203,-10.87,28.36,6.43,
351,1661605309829,-0.7124,0.9401,-0.4056,-14.86,18.55,-0.22,
352,1661605309829,-0.8252,1.0402,0.0881,-7.4,19.81,-1.87,
353,1661605309829,-0.7573,0.7272,-0.2059,3.03,15.33,-3.41,
354,1661605309829,-0.8066,0.6506,-0.826,8.0,6.87,-1.41,
355,1661605309829,-0.7466,0.5969,-0.2757,0.62,13.89,-4.6,
356,1661605309829,-0.855,0.4572,-0.3748,1.13,-1.84,-1.96,
357,1661605309829,-0.8286,0.2526,-0.8743,0.83,-11.74,-4.79,
358,1661605309829,-0.8437,0.1901,-0.4393,-2.88,-18.67,-1.41,
359,1661605309829,-0.7475,0.1808,-0.2718,-3.47,-14.28,-1.96,
360,1661605309829,-0.792,-0.0833,-0.5423,-2.38,-14.28,0.51,
361,1661605309829,-0.8633,-0.0872,0.0505,-5.76,-0.15,-8.89,
362,1661605309829,-0.9004,-0.0369,-0.243,-9.56,-13.59,-6.07,
363,1661605309844,-0.8188,-0.283,-0.344,-10.87,-17.31,-6.97,
364,1661605309844,-0.9433,-0.285,-0.0872,-9.56,-9.79,-5.52,
365,1661605309844,-0.8633,-0.2279,-0.6419,-9.06,-8.1,-9.35,
366,1661605309844,-0.8223,-0.3299,-0.7674,-16.37,-16.14,-5.79,
367,1661605309844,-1.0088,-0.5067,0.0192,-17.48,-13.59,-6.62,
368,1661605309844,-1.0449,-0.4373,-0.1688,-22.65,-32.97,-2.6,
369,1661605309844,-1.0054,-0.5037,-0.597,-26.96,-20.62,-3.5,
370,1661605309844,-1.188,-0.5526,0.6013,-32.18,-9.03,-5.24,
371,1661605309844,-1.1831,-0.5799,0.1398,-30.76,-19.86,-3.32,
372,1661605309844,-1.1055,-0.5325,-0.012,-31.26,-18.67,-2.05,
373,1661605309844,-1.2383,-0.5345,0.7722,-32.05,1.21,-7.43,
374,1661605309844,-1.2422,-0.6883,0.1262,-37.97,-5.47,-7.33,
375,1661605309844,-1.1738,-0.6019,-0.011,-42.17,-3.7,-0.04,
376,1661605309844,-1.1499,-0.6907,0.4479,-45.47,-3.44,1.13,
377,1661605309844,-1.2217,-0.7723,-0.1722,-43.86,-10.05,4.43,
378,1661605309844,-1.0244,-0.5955,0.0363,-47.56,-9.45,1.41,
379,1661605309844,-1.2441,-0.7327,0.4392,-47.77,-15.62,7.34,
380,1661605309844,-1.2749,-0.6619,0.2062,-52.85,-21.13,9.07,
381,1661605309844,-1.3081,-0.5115,0.3825,-56.04,-10.46,13.26,
382,1661605309844,-1.2759,-0.2962,1.0114,-58.34,2.81,9.89,
383,1661605309844,-1.3276,-0.2186,0.6184,-53.46,-0.91,12.0,
384,1661605309844,-1.188,-0.139,0.6125,-50.65,10.93,9.43,
385,1661605309844,-1.2031,0.0993,0.8688,-51.14,12.63,11.45,
386,1661605309844,-1.207,0.2262,0.4807,-50.75,17.62,9.43,
387,1661605309844,-1.1973,0.2536,0.2336,-49.66,15.75,11.72,
388,1661605309844,-1.0376,0.5099,0.4704,-48.75,24.89,11.82,
389,1661605309844,-1.0405,0.6545,0.3122,-46.17,12.2,10.81,
390,1661605309844,-1.1543,0.673,-0.2161,-44.87,6.61,9.25,
391,1661605309844,-1.0478,0.7106,0.2858,-41.35,21.25,10.72,
392,1661605309844,-1.0493,0.8464,0.2927,-33.56,24.8,10.53,
393,1661605309844,-0.9604,0.842,-0.0779,-29.46,24.54,7.16,
394,1661605309844,-0.9028,0.8942,0.3068,-27.26,30.72,3.33,
395,1661605309844,-0.9814,0.8473,0.0979,-27.77,23.7,2.23,
396,1661605309844,-0.9512,0.7726,-0.1624,-23.28,23.03,6.34,
397,1661605309860,-0.9336,0.8386,0.1013,-15.86,25.06,3.7,
398,1661605309860,-0.936,0.7013,0.1418,-13.76,23.54,3.79,
399,1661605309860,-0.9941,0.6862,-0.428,-13.06,12.37,4.43,
400,1661605309860,-0.7895,0.6808,-0.0911,-13.48,15.49,3.7,
401,1661605309860,-0.8476,0.6144,0.0656,-12.58,15.49,6.43,
402,1661605309860,-0.6323,0.6745,-0.2083,-12.28,7.47,2.78,
403,1661605309860,-0.7954,0.6696,-0.556,-7.58,1.21,3.88,
404,1661605309860,-0.8213,0.5695,0.0007,-4.16,10.6,6.8,
405,1661605309860,-0.9424,0.5583,-0.1854,-2.59,7.04,2.97,
406,1661605309860,-0.7124,0.756,-0.4764,-2.77,11.86,1.68,
407,1661605309860,-0.5986,0.7394,-0.5076,-5.58,-2.68,-6.43,
408,1661605309860,-0.6601,0.5778,-0.326,-4.08,-1.75,0.51,
409,1661605309860,-0.7197,0.5417,-0.7215,0.11,-11.32,-2.86,
410,1661605309860,-0.709,0.55,-0.4598,2.03,8.81,-3.6,
411,1661605309860,-0.8086,0.4758,-0.0906,-1.89,-4.97,-6.79,
412,1661605309860,-0.75,0.2844,-0.7078,-3.76,-14.02,-5.52,
413,1661605309860,-0.7373,0.3615,-0.3699,-3.89,-14.28,-7.7,
414,1661605309860,-0.7866,0.2306,-0.136,-1.47,7.8,-3.32,
415,1661605309860,-0.8364,0.0251,-0.3641,-4.66,-4.8,-6.34,
416,1661605309860,-0.8271,0.0095,-0.4559,-8.97,-4.97,-9.81,
417,1661605309860,-0.854,-0.2308,-0.0291,-4.28,-8.78,-7.7,
418,1661605309860,-1.0049,-0.5887,-0.5218,-8.07,-16.3,-7.79,
419,1661605309860,-0.9492,-0.5374,-0.1243,-14.67,-6.23,-13.91,
420,1661605309860,-1.1074,-0.6805,-0.0154,-20.38,-17.14,-7.7,
421,1661605309860,-1.0088,-0.8895,-0.3807,-22.47,-23.49,-8.07,
422,1661605309860,-1.1128,-0.8699,-0.0198,-30.16,-21.8,-4.33,
423,1661605309860,-1.0669,-0.7889,0.2541,-35.76,-24.42,-3.14,
424,1661605309860,-1.2471,-0.9105,0.0119,-34.65,-24.68,-0.04,
425,1661605309860,-1.1631,-0.741,0.3796,-38.89,-16.38,4.34,
426,1661605309860,-1.1045,-0.5843,0.1726,-41.54,-23.58,1.77,
427,1661605309860,-1.0347,-0.7005,0.1809,-44.15,-18.41,1.32,
428,1661605309860,-1.2734,-0.5247,0.3557,-44.43,-11.3,-0.12,
429,1661605309876,-1.2363,-0.3616,0.2551,-48.78,-9.96,3.24,
430,1661605309876,-1.185,-0.4583,0.3205,-50.26,-14.52,3.24,
431,1661605309876,-1.188,-0.4818,0.5349,-48.14,-10.28,0.8,
432,1661605309876,-1.2075,-0.2054,0.3151,-46.96,-4.89,-0.59,
433,1661605309876,-1.2773,-0.1458,0.5109,-47.75,2.98,3.06,
434,1661605309876,-1.2925,-0.2327,0.6628,-51.75,8.06,2.14,
435,1661605309876,-1.1748,-0.0477,0.5417,-52.36,12.03,1.68,
436,1661605309876,-1.3374,0.0134,0.4704,-46.75,16.94,1.06,
437,1661605309876,-1.1601,-0.0218,0.5236,-47.34,17.78,0.51,
438,1661605309876,-1.144,-0.0189,0.4768,-48.55,12.87,2.6,
439,1661605309876,-1.0918,0.1613,0.2839,-48.06,17.52,6.06,
440,1661605309880,-1.1396,0.0593,0.2194,-42.05,17.62,9.62,
441,1661605309880,-1.1929,0.0363,0.2111,-45.27,12.12,9.16,
442,1661605309881,-1.0762,0.3571,0.3688,-44.08,8.4,15.37,
443,1661605309881,-1.0962,0.4694,0.4465,-44.15,5.61,15.1,
444,1661605309882,-1.2392,0.3591,0.4421,-39.27,10.0,14.91,
445,1661605309882,-0.9717,0.4465,0.4562,-32.95,21.58,13.36,
446,1661605309883,-0.9072,0.7819,0.3869,-31.96,21.75,13.72,
447,1661605309883,-0.9048,0.7707,0.0793,-25.68,16.52,16.82,
448,1661605309884,-0.8467,0.7053,0.1437,-21.37,28.1,16.1,
449,1661605309884,-1.0249,0.9787,0.0817,-18.08,34.87,10.35,
450,1661605309885,-0.6152,1.0055,-0.1971,-16.28,38.93,7.25,
451,1661605309885,-0.6904,0.9806,-0.6536,-17.16,6.45,7.34,
452,1661605309885,-0.8193,0.905,-0.2068,-16.96,5.01,3.97,
453,1661605309887,-0.9121,1.0519,-0.1116,-10.58,1.12,11.36,
454,1661605309887,-0.8193,1.0246,-0.577,-7.18,18.45,7.62,
455,1661605309888,-0.6665,0.8522,0.0437,-8.46,27.69,5.79,
456,1661605309888,-0.8359,0.9264,0.1379,-9.27,21.51,2.69,
457,1661605309888,-0.7168,0.9987,-0.4476,-4.47,10.43,1.23,
458,1661605309888,-0.7939,0.8024,-0.2498,1.53,11.44,-4.6,
459,1661605309889,-0.7856,0.819,-0.0198,3.91,14.06,-4.51,
460,1661605309889,-0.7681,0.6086,-0.785,0.04,7.47,-3.14,
461,1661605309889,-0.748,0.4977,-0.7879,-1.67,11.19,-2.42,
462,1661605309890,-0.8032,0.3849,-0.3108,0.81,5.68,-3.41,
463,1661605309890,-0.8711,0.2389,-0.6639,2.81,-10.89,-3.5,
464,1661605309891,-0.7339,0.1989,-0.7493,-1.38,-19.6,-2.7,
465,1661605309891,-0.8066,-0.0701,-0.1512,-2.16,-13.42,-6.34,
466,1661605309892,-0.8833,-0.1527,-0.4759,-4.47,-13.25,-8.43,
467,1661605309892,-0.8564,-0.0369,-0.368,-5.08,-18.41,-7.98,
468,1661605309893,-0.9541,-0.3387,0.1101,-7.27,-12.08,-9.35,
469,1661605309893,-0.8257,-0.4315,-0.3338,-12.55,-15.1,-11.15,
470,1661605309894,-0.897,-0.1956,-0.4002,-13.25,-13.5,-8.78,
471,1661605309894,-0.9429,-0.4432,-0.1238,-13.38,-11.56,-7.43,
472,1661605309896,-1.0093,-0.6512,-0.324,-18.67,-20.2,-1.32,
473,1661605309896,-0.9678,-0.4603,-0.2659,-22.47,-22.99,-4.69,
474,1661605309896,-0.9521,-0.574,-0.0237,-23.97,-16.81,-1.78,
475,1661605309896,-1.0581,-0.6712,0.0842,-29.35,-17.57,-6.25,
476,1661605309897,-1.0547,-0.5985,0.1496,-35.35,-19.1,-0.22,
477,1661605309897,-1.0776,-0.5052,0.4743,-38.37,-12.32,-2.24,
478,1661605309897,-1.209,-0.6307,0.2614,-34.45,-5.99,-2.96,
479,1661605309897,-1.1528,-0.4998,0.2976,-37.15,-2.51,-1.51,
480,1661605309897,-1.1289,-0.411,0.4211,-42.86,-0.15,-1.51,
481,1661605309897,-1.1636,-0.6229,0.2121,-40.57,-0.31,-2.7,
482,1661605309897,-1.1597,-0.7239,-0.0403,-39.15,-0.65,-2.05,
483,1661605309897,-1.0478,-0.4915,0.2243,-46.64,-6.83,-0.68,
484,1661605309897,-1.2783,-0.6238,0.1203,-51.26,-15.04,3.15,
485,1661605309897,-1.2246,-0.7332,0.2727,-51.05,-12.58,3.24,
486,1661605309897,-1.3535,-0.4881,0.7233,-52.55,-11.48,5.79,
487,1661605309897,-1.2471,-0.244,0.6726,-52.24,-6.83,4.34,
488,1661605309897,-1.3188,-0.3382,0.7082,-53.77,-0.82,9.25,
489,1661605309897,-1.1675,-0.1468,1.052,-50.94,18.12,9.25,
490,1661605309897,-1.2832,0.0793,0.8615,-48.35,11.19,12.18,
491,1661605309897,-1.2593,0.1862,0.4221,-47.24,14.84,12.38,
492,1661605309897,-1.1714,0.1769,0.5944,-43.06,16.94,14.55,
493,1661605309897,-1.0273,0.447,0.2434,-47.95,17.28,15.46,
494,1661605309897,-1.0161,0.6154,-0.0813,-43.97,13.72,13.72,
495,1661605309897,-0.956,0.5739,0.153,-36.95,19.05,15.1,
496,1661605309897,-0.9365,0.7873,0.1408,-39.56,17.28,11.45,
497,1661605309909,-0.9023,0.8576,-0.0716,-36.55,16.59,12.09,
498,1661605309909,-0.9448,0.8791,0.0788,-32.43,20.26,4.72,
499,1661605309909,-0.9653,0.904,0.3747,-25.35,30.55,6.15,
500,1661605309909,-0.9116,1.0021,0.1052,-20.27,27.93,6.34,
501,1661605309909,-0.8862,1.0055,0.0822,-19.77,31.91,3.42,
502,1661605309909,-0.9404,0.7731,0.2033,-14.77,27.26,5.33,
503,1661605309909,-0.9468,0.8215,-0.2767,-14.17,22.27,4.52,
504,1661605309909,-0.9209,0.8825,-0.3191,-11.07,21.08,5.6,
505,1661605309909,-0.8574,0.7258,-0.1136,-5.96,17.36,2.05,
506,1661605309909,-0.8437,0.6032,-0.2518,-4.79,10.34,1.77,
507,1661605309909,-0.789,0.7106,-0.5115,-9.06,4.51,4.16,
508,1661605309909,-0.8794,0.5778,-0.2396,-5.47,4.58,-1.78,
509,1661605309909,-0.8306,0.4304,-0.1805,-2.86,7.38,0.42,
510,1661605309909,-0.8174,0.5217,-0.3035,-3.06,3.75,0.97,
511,1661605309909,-0.6518,0.6862,-0.3104,-2.07,6.03,0.78,
512,1661605309909,-0.7724,0.5134,-0.2869,-3.4,3.41,-0.59,
513,1661605309909,-0.7222,0.4758,-0.49,-0.38,0.79,-1.87,
514,1661605309909,-0.8076,0.6291,-0.4393,3.24,-3.85,-1.49,
515,1661605309909,-0.7778,0.5461,-0.451,-1.47,-9.45,-8.07,
516,1661605309909,-0.769,0.342,-0.5628,-0.36,-6.74,-7.24,
517,1661605309909,-0.7646,0.321,-0.4095,-0.96,5.29,-5.87,
518,1661605309909,-0.7475,0.3874,-0.3714,-3.47,-3.03,-4.79,
519,1661605309909,-0.8271,0.0387,-0.639,0.31,-16.3,-7.98,
520,1661605309909,-0.916,0.0431,0.0471,-3.18,-7.67,-7.24,
521,1661605309909,-0.831,0.1354,-0.0701,-8.88,-14.35,-11.26,
522,1661605309909,-0.8262,-0.1771,-0.513,-9.18,-6.16,-9.71,
523,1661605309909,-0.9502,-0.4124,-0.0062,-7.85,-4.28,-10.16,
524,1661605309909,-1.0127,-0.4246,-0.0442,-14.05,-10.11,-14.08,
525,1661605309909,-1.02,-0.6185,-0.4012,-15.18,-17.4,-9.17,
526,1661605309909,-1.0762,-0.8402,0.0261,-22.26,-11.32,-8.62,
527,1661605309909,-1.1367,-0.8255,-0.1824,-28.25,-23.49,-2.6,
528,1661605309909,-0.9736,-0.7786,-0.2552,-31.37,-17.31,-6.25,
529,1661605309909,-1.2363,-0.9739,0.2985,-33.76,-22.13,0.14,
530,1661605309909,-1.2231,-0.8099,0.0803,-37.65,-27.81,-2.6,
531,1661605309909,-1.1675,-0.6986,0.1032,-37.07,-23.23,-0.86,
532,1661605309909,-1.206,-0.8533,0.5988,-45.04,-10.45,2.34,
533,1661605309925,-1.2217,-0.5648,0.2629,-47.86,-17.24,3.24,
534,1661605309925,-1.1826,-0.4051,0.3435,-46.37,-8.19,1.13,
535,1661605309925,-1.332,-0.5233,0.5529,-41.97,-11.32,1.77,
536,1661605309925,-1.2568,-0.3587,0.3981,-48.17,-6.33,3.51,
537,1661605309925,-1.2764,-0.1336,0.4025,-49.56,-5.56,2.87,
538,1661605309925,-1.2651,-0.1571,0.4519,-45.88,5.52,4.8,
539,1661605309925,-1.2485,-0.1815,0.5422,-47.56,6.45,5.7,
540,1661605309925,-1.2759,-0.0252,0.4812,-48.76,9.91,5.51,
541,1661605309925,-1.2187,0.0856,0.527,-51.55,7.54,3.06,
542,1661605309925,-1.2749,0.0563,0.509,-48.44,16.52,7.99,
543,1661605309925,-1.1699,0.1891,0.3469,-46.35,16.94,6.43,
544,1661605309925,-1.0693,0.2814,0.3244,-44.05,22.77,6.89,
545,1661605309925,-1.0869,0.175,0.3435,-41.76,23.54,10.53,
546,1661605309925,-1.2041,0.1286,0.1633,-42.17,16.26,12.73,
547,1661605309925,-1.1015,0.4142,0.3542,-42.64,13.72,12.81,
548,1661605309925,-1.1548,0.3595,0.406,-38.66,12.29,10.9,
549,1661605309925,-1.0605,0.2834,0.277,-36.86,13.98,16.01,
550,1661605309925,-0.9443,0.4098,0.3273,-35.09,18.29,13.91,
551,1661605309925,-0.9599,0.7018,0.3747,-32.77,24.13,13.91,
552,1661605309925,-1.0141,0.6608,0.1223,-27.55,20.41,12.64,
553,1661605309925,-1.0869,0.5915,0.1169,-23.26,19.14,14.09,
554,1661605309925,-0.7305,0.9201,0.3562,-18.76,26.16,11.36,
555,1661605309925,-0.9331,0.905,-0.324,-13.76,12.46,14.64,
556,1661605309925,-0.916,0.7658,-0.4964,-14.66,6.2,15.1,
557,1661605309925,-0.7378,0.777,-0.2195,-13.29,5.85,13.91,
558,1661605309925,-0.8579,1.0134,-0.2752,-5.66,28.21,10.64,
559,1661605309925,-0.9204,0.9909,-0.4202,-4.28,19.72,7.34,
560,1661605309925,-0.7632,0.8259,-0.221,-12.26,7.88,5.15,
561,1661605309925,-0.6245,1.0363,-0.0721,-10.48,-0.57,2.23,
562,1661605309925,-0.7231,0.9304,-0.3436,-0.88,0.02,1.5,
563,1661605309925,-0.7178,0.8058,-0.219,6.02,10.26,0.14,
564,1661605309925,-0.771,0.86,-0.0833,1.93,26.66,-6.07,
565,1661605309925,-0.7305,0.8215,-0.3694,-2.59,19.48,-5.06,
566,1661605309925,-0.6968,0.5969,-0.638,2.93,12.87,-7.43,
567,1661605309925,-0.7168,0.36,-0.3924,6.12,1.79,-9.81,
568,1661605309940,-0.771,0.3137,-0.7469,5.35,-6.91,-11.7,
569,1661605309940,-0.6763,0.1808,-0.6468,3.62,-5.23,-11.07,
570,1661605309941,-0.8223,-0.0784,-0.4427,-0.36,-6.23,-7.88,
571,1661605309941,-0.8945,-0.2098,-0.4427,-4.77,-16.38,-7.98,
572,1661605309942,-0.8447,-0.1263,-0.4944,-5.38,-20.87,-10.36,
573,1661605309942,-0.9853,-0.3563,0.0334,-8.39,-15.71,-6.53,
574,1661605309943,-0.9463,-0.5189,-0.1751,-9.87,-19.69,-3.05,
575,1661605309943,-0.9087,-0.3719,-0.2776,-10.69,-12.32,-6.79,
576,1661605309943,-0.9722,-0.408,0.0915,-14.77,-15.8,-4.15,
577,1661605309943,-1.0464,-0.7464,-0.2254,-17.77,-21.46,-7.15,
578,1661605309943,-0.9931,-0.512,-0.3396,-23.66,-22.73,-7.24,
579,1661605309943,-0.9648,-0.5301,0.1071,-25.95,-15.45,-2.24,
580,1661605309943,-1.0102,-0.7332,-0.1692,-27.75,-26.12,-1.96,
581,1661605309943,-1.0058,-0.5423,-0.0643,-33.76,-18.24,-0.22,
582,1661605309943,-1.0742,-0.4305,0.3576,-34.57,-10.22,-5.43,
583,1661605309943,-1.168,-0.6619,0.1218,-37.27,-18.24,-0.96,
584,1661605309943,-1.1753,-0.5345,0.3747,-40.26,-4.54,-3.5,
585,1661605309943,-1.1748,-0.2528,0.5222,-40.34,3.17,-4.68,
586,1661605309943,-1.2554,-0.5701,0.196,-39.26,4.17,-5.61,
587,1661605309943,-1.2441,-0.6717,0.3322,-42.87,2.22,-4.88,
588,1661605309943,-1.2353,-0.3753,0.2336,-44.87,-1.24,-6.79,
589,1661605309943,-1.186,-0.4476,0.1174,-45.25,-2.43,1.87,
590,1661605309943,-1.2427,-0.7191,0.3698,-48.66,-2.6,4.43,
591,1661605309943,-1.3584,-0.5799,0.5388,-54.25,-11.82,7.8,
592,1661605309943,-1.2182,-0.2405,0.4045,-51.84,-6.66,8.35,
593,1661605309943,-1.2495,-0.3538,0.7683,-48.15,-1.0,11.17,
594,1661605309943,-1.0791,-0.3011,0.7648,-50.36,5.44,9.71,
595,1661605309943,-1.1621,0.1149,0.5104,-50.65,6.03,13.17,
596,1661605309943,-1.2949,0.1813,0.5446,-49.16,14.32,13.45,
597,1661605309943,-1.1035,0.0905,0.7224,-45.13,20.76,15.2,
598,1661605309943,-1.0849,0.3869,0.2902,-41.85,15.42,12.9,
599,1661605309943,-1.0239,0.6393,0.0329,-38.55,12.37,8.17,
600,1661605309943,-0.9888,0.4826,0.1462,-35.06,13.98,11.17,
601,1661605309943,-0.958,0.759,0.2072,-35.26,20.41,15.46,
602,1661605309943,-0.9009,0.9304,-0.0335,-32.45,20.74,14.46,
603,1661605309943,-0.9023,0.8239,0.1447,-32.65,13.8,12.9,
604,1661605309943,-1.0161,0.82,0.2614,-26.87,16.85,11.91,
605,1661605309943,-0.9917,1.0807,0.3713,-20.26,20.48,12.73,
606,1661605309959,-0.8467,1.1442,-0.0247,-12.37,33.85,10.44,
607,1661605309959,-0.9087,0.822,0.1159,-12.98,37.07,13.08,
608,1661605309959,-0.9077,0.8791,-0.0486,-16.46,30.65,7.8,
609,1661605309959,-0.7256,0.9709,-0.3519,-9.79,23.11,6.25,
610,1661605309959,-0.9175,0.6696,-0.2928,-3.87,17.36,5.88,
611,1661605309959,-0.9214,0.5798,-0.303,-1.38,13.8,9.71,
612,1661605309959,-0.8315,0.6852,-0.3943,-2.59,5.61,3.42,
613,1661605309959,-0.812,0.6081,-0.43,-2.36,5.77,2.51,
614,1661605309959,-0.7739,0.4279,-0.2991,-1.06,1.72,4.43,
615,1661605309959,-0.8794,0.5768,-0.2728,-2.47,1.46,4.06,
616,1661605309959,-0.728,0.6608,-0.1624,-2.38,1.46,2.51,
617,1661605309959,-0.8769,0.4865,-0.22,0.62,-1.67,-0.86,
618,1661605309959,-0.6733,0.4142,-0.4173,-0.28,-1.75,-4.42,
619,1661605309959,-0.6797,0.6105,-0.3167,1.93,-3.44,-7.79,
620,1661605309959,-0.7949,0.5114,-0.6082,5.41,-0.41,-6.16,
621,1661605309959,-0.708,0.3473,-0.9471,9.73,-5.56,-3.69,
622,1661605309959,-0.7412,0.1769,-0.4612,0.92,11.1,-7.43,
623,1661605309959,-0.8306,0.3107,-0.1844,-4.86,-3.03,-5.52,
624,1661605309959,-0.7436,0.0178,-0.9993,-5.17,-29.5,-10.45,
625,1661605309959,-0.9385,-0.0696,0.0192,-3.57,-12.75,-12.26,
626,1661605309959,-0.9883,0.0231,-0.118,-7.49,-6.16,-7.7,
627,1661605309959,-0.9604,-0.2899,-0.5643,-12.77,-3.44,-9.62,
628,1661605309959,-1.0361,-0.3177,0.4099,-12.96,-2.43,-8.89,
629,1661605309959,-1.082,-0.4212,-0.2234,-10.97,-15.28,-10.36,
630,1661605309959,-0.9463,-0.5667,-0.387,-18.96,-7.67,-7.79,
631,1661605309959,-1.0268,-0.7156,0.173,-22.47,-6.16,-10.26,
632,1661605309959,-1.0591,-0.6785,-0.4319,-20.85,-21.37,-3.6,
633,1661605309959,-1.0,-0.825,-0.1346,-31.75,-24.25,-7.15,
634,1661605309959,-1.2056,-0.9715,0.3527,-35.07,-22.9,-1.87,
635,1661605309959,-1.0976,-0.7513,-0.0355,-35.27,-27.47,-2.96,
636,1661605309959,-1.1924,-0.8524,0.4128,-40.06,-24.76,1.32,
637,1661605309959,-1.1977,-0.8489,0.6633,-46.87,-13.77,5.06,
638,1661605309959,-1.269,-0.6649,0.4606,-44.95,-14.11,5.42,
639,1661605309959,-1.3374,-0.5135,0.4001,-45.05,-4.89,-0.32,
640,1661605309976,-1.2539,-0.5306,0.5393,-45.34,-9.96,1.13,
641,1661605309976,-1.3262,-0.4139,0.4934,-48.35,-9.7,1.5,
642,1661605309976,-1.31,-0.2249,0.1472,-46.66,-13.42,2.6,
643,1661605309976,-1.2485,-0.2049,0.5681,-44.35,9.74,6.06,
644,1661605309976,-1.2866,-0.1546,0.5041,-49.65,1.03,8.81,
645,1661605309976,-1.2861,-0.0809,0.1677,-51.36,-0.74,8.17,
646,1661605309976,-1.2285,0.0886,0.5905,-49.27,10.09,5.51,
647,1661605309976,-1.2837,0.0778,0.7565,-44.35,18.97,8.81,
648,1661605309976,-1.185,0.2057,0.3161,-47.95,22.1,6.7,
649,1661605309976,-1.1753,0.4357,0.5983,-49.43,23.22,7.36,
650,1661605309976,-1.1592,0.3473,0.446,-44.17,21.75,11.72,
651,1661605309976,-1.123,0.384,0.0783,-35.97,22.18,11.08,
652,1661605309976,-1.1035,0.4513,0.1936,-33.96,25.06,12.27,
653,1661605309976,-1.1343,0.5231,0.3635,-37.15,15.92,10.81,
654,1661605309976,-1.0093,0.4123,0.0549,-34.86,9.07,12.46,
655,1661605309976,-0.9848,0.529,0.2478,-29.15,13.72,11.17,
656,1661605309976,-1.0093,0.6965,0.2546,-27.48,18.12,11.54,
657,1661605309976,-1.0176,0.59,0.0402,-25.87,17.19,12.64,
658,1661605309976,-1.0801,0.6999,0.3493,-19.88,22.61,13.91,
659,1661605309976,-0.8589,0.8049,0.4514,-16.58,31.65,11.63,
660,1661605309976,-0.8574,0.8996,-0.1395,-12.67,19.64,7.62,
661,1661605309976,-0.5561,0.696,-0.2879,-7.04,30.31,4.08,
662,1661605309976,-0.8135,0.8361,-0.1053,-6.59,17.78,5.88,
663,1661605309976,-0.7222,0.9929,-0.6868,-8.26,8.31,8.26,
664,1661605309976,-0.8955,0.7697,-0.2781,-5.17,-0.91,5.79,
665,1661605309976,-0.876,0.7541,-0.0301,-4.79,7.64,11.91,
666,1661605309976,-0.581,1.0251,-0.6761,-2.36,1.88,5.42,
667,1661605309976,-0.7754,0.9611,-0.386,0.63,20.48,6.43,
668,1661605309976,-0.7734,0.7179,0.0559,3.53,23.2,0.87,
669,1661605309976,-0.7886,0.7116,-0.4417,1.41,11.1,-1.51,
670,1661605309976,-0.6987,0.84,-0.285,-2.38,9.67,-3.32,
671,1661605309976,-0.79,0.8957,-0.2371,2.92,-2.77,-5.15,
672,1661605309976,-0.7056,0.3278,-0.6673,7.92,6.28,-4.51,
673,1661605309976,-0.709,0.4333,-0.5628,10.03,2.39,-11.35,
674,1661605309976,-0.7236,0.4098,-0.4749,6.83,9.41,-12.17,
675,1661605309976,-0.7724,0.0651,-0.7591,3.03,-14.18,-10.71,
676,1661605309991,-0.8965,-0.2083,-0.6429,0.92,-15.88,-10.71,
677,1661605309991,-0.8076,-0.1541,-0.2615,-2.38,-20.87,-12.72,
678,1661605309991,-0.9531,-0.3514,-0.3904,-8.39,-17.14,-6.69,
679,1661605309991,-0.9526,-0.5985,-0.0105,-9.36,-21.72,-4.42,
680,1661605309991,-0.9033,-0.5042,-0.1263,-13.06,-16.55,-8.25,
681,1661605309991,-0.9639,-0.3675,-0.1287,-12.58,-19.01,-4.79,
682,1661605309991,-1.1177,-0.9041,0.1633,-19.05,-8.69,-6.43,
683,1661605309991,-0.9673,-0.6444,-0.2601,-21.97,-19.77,-10.54,
684,1661605309991,-1.0039,-0.4158,-0.1575,-26.38,-20.96,-6.79,
685,1661605309997,-1.0337,-0.8494,-0.0984,-27.87,-28.74,0.05,
686,1661605309997,-0.977,-0.6522,-0.1819,-30.16,-18.93,-0.13,
687,1661605309997,-1.0493,-0.388,0.1882,-32.97,-17.07,-4.05,
688,1661605309997,-1.0849,-0.659,0.1779,-39.55,-23.06,-3.14,
689,1661605309997,-1.2549,-0.6527,0.4548,-39.96,-10.55,-4.97,
690,1661605309997,-1.2661,-0.2659,0.6184,-41.06,-3.37,-6.07,
691,1661605309997,-1.2598,-0.4276,0.4709,-42.37,2.81,-2.77,
692,1661605309997,-1.2236,-0.5628,0.5388,-39.36,6.87,-2.15,
693,1661605309997,-1.1816,-0.2166,0.2404,-41.35,6.2,-1.96,
694,1661605309997,-1.1738,-0.1868,0.154,-40.64,6.61,0.23,
695,1661605309997,-1.209,-0.6434,0.2927,-43.96,6.2,7.25,
696,1661605309997,-1.2764,-0.5057,0.2712,-50.56,2.14,2.32,
697,1661605309997,-1.1601,-0.1824,0.2062,-49.95,-0.41,6.43,
698,1661605309997,-1.2939,-0.4373,0.4914,-47.34,-4.3,9.25,
699,1661605309997,-1.2119,-0.3734,0.5368,-47.85,-4.46,15.28,
700,1661605309997,-1.2168,0.0212,0.6364,-48.44,0.95,14.18,
701,1661605309997,-1.355,0.1257,0.7585,-50.84,9.68,16.93,
702,1661605309997,-1.2598,0.0031,0.8669,-46.76,18.04,13.08,
703,1661605309997,-1.1245,0.3117,0.6052,-44.46,16.52,12.09,
704,1661605309997,-0.9282,0.6554,0.3381,-38.57,20.24,14.36,
705,1661605309997,-1.0674,0.5231,0.236,-30.37,21.58,15.1,
706,1661605309997,-0.8423,0.6657,-0.0633,-32.85,21.58,17.74,
707,1661605309997,-0.9111,0.9675,0.029,-32.95,11.27,11.72,
708,1661605309997,-1.0449,0.9474,0.1965,-28.67,18.79,14.0,
709,1661605309997,-0.915,0.8229,-0.4212,-21.05,6.87,13.45,
710,1661605309997,-0.9487,1.049,0.0573,-20.17,33.35,9.25,
711,1661605309997,-0.914,1.2365,0.279,-19.97,17.95,8.35,
712,1661605309997,-0.8672,0.8019,-0.3816,-15.28,24.47,9.71,
713,1661605309997,-0.7925,1.0197,0.3298,-9.17,28.1,6.52,
714,1661605309997,-0.8467,1.0934,-0.0848,-7.76,27.59,5.97,
715,1661605309997,-0.8359,0.9484,-0.4505,-4.48,18.88,2.51,
716,1661605309997,-0.915,0.674,-0.1761,0.11,23.2,4.16,
717,1661605309997,-0.8247,0.7844,-0.054,0.63,14.23,0.33,
718,1661605309997,-0.852,0.6994,-0.8436,2.54,-1.17,-2.42,
719,1661605309997,-0.7109,0.4216,-0.1849,2.22,11.77,-0.22,
720,1661605309997,-0.8091,0.4206,-0.0643,1.41,3.58,2.87,
721,1661605310012,-0.7187,0.6213,-0.6111,-3.57,-1.67,2.69,
722,1661605310012,-0.8223,0.3996,-0.4563,0.11,-5.56,2.97,
723,1661605310012,-0.874,0.2487,-0.0071,1.03,5.44,-2.15,
724,1661605310012,-0.5571,0.3898,-0.2825,3.22,-12.75,-3.41,
725,1661605310012,-0.624,0.5163,-0.5989,4.54,7.3,-3.6,
726,1661605310012,-0.6728,0.341,-0.3172,7.22,6.54,-3.69,
727,1661605310012,-0.7392,0.1149,-0.7244,2.52,7.88,-2.96,
728,1661605310012,-0.8188,0.2975,-0.2552,-3.98,-8.52,-6.43,
729,1661605310012,-0.9546,-0.0628,-0.451,-3.96,-30.01,-8.16,
730,1661605310012,-0.8633,-0.0555,-0.5467,2.74,-28.48,-4.15,
731,1661605310012,-0.897,-0.0242,-0.4036,-2.68,1.46,-10.45,
732,1661605310012,-0.8393,-0.1248,-0.0711,-10.77,-2.34,-11.53,
733,1661605310012,-0.9726,-0.4774,-0.3006,-9.38,-19.6,-4.42,
734,1661605310012,-0.9448,-0.3905,0.0988,-14.46,-19.43,-10.26,
735,1661605310012,-1.0098,-0.3431,0.0646,-18.78,-5.23,-8.25,
736,1661605310012,-1.022,-0.6502,-0.077,-17.36,-4.97,-7.15,
737,1661605310012,-1.1025,-0.7108,0.0236,-18.98,-13.09,-9.26,
738,1661605310012,-1.1162,-0.5994,0.01,-24.27,-22.13,-7.43,
739,1661605310012,-1.2065,-0.9066,-0.24,-28.18,-13.01,-1.96,
740,1661605310012,-1.1494,-0.909,0.134,-32.97,-14.7,-4.33,
741,1661605310012,-1.2549,-0.7528,0.1115,-36.77,-18.93,-3.23,
742,1661605310012,-1.1455,-0.866,0.0915,-40.55,-20.44,1.5,
743,1661605310024,-1.2861,-0.8016,0.4187,-41.27,-16.81,2.87,
744,1661605310024,-1.3056,-0.5677,0.5295,-46.95,-10.29,3.06,
745,1661605310024,-1.333,-0.574,0.3942,-45.56,-12.08,4.52,
746,1661605310024,-1.2856,-0.5198,0.6848,-45.97,3.41,8.53,
747,1661605310024,-1.1211,-0.3836,0.7233,-47.56,6.28,6.98,
748,1661605310024,-1.2182,-0.1507,0.4475,-49.05,2.48,4.7,
749,1661605310024,-1.2163,-0.3485,0.3791,-46.87,-4.04,4.8,
750,1661605310024,-1.2724,-0.1463,0.8942,-46.95,0.19,6.52,
751,1661605310024,-1.2866,0.1794,0.2956,-47.34,-3.7,2.32,
752,1661605310024,-1.1787,0.0622,0.3967,-43.07,11.36,3.06,
753,1661605310024,-1.1338,0.0402,0.6848,-43.65,23.37,7.44,
754,1661605310024,-1.1577,0.3654,0.4392,-46.96,15.25,7.44,
755,1661605310030,-1.0478,0.447,0.2062,-41.15,14.99,5.6,
756,1661605310030,-0.9975,0.4113,0.531,-34.46,26.83,6.7,
757,1661605310030,-1.041,0.5431,0.0607,-31.47,26.07,11.08,
758,1661605310030,-0.9834,0.633,0.0598,-33.15,29.2,5.6,
759,1661605310030,-1.0073,0.6139,0.2902,-32.04,27.01,11.28,
760,1661605310030,-0.9751,0.4689,0.1286,-30.18,20.91,10.81,
761,1661605310030,-0.9912,0.7287,-0.1893,-21.86,10.84,10.44,
762,1661605310030,-0.9302,0.6711,0.2575,-21.97,18.97,3.61,
763,1661605310030,-1.0664,0.4504,0.0388,-20.66,10.76,10.08,
764,1661605310030,-0.8442,0.7931,-0.0428,-19.56,17.52,9.98,
765,1661605310030,-0.8857,0.8293,0.4357,-16.08,23.11,5.33,
766,1661605310030,-0.9878,0.714,0.2883,-8.68,17.36,6.25,
767,1661605310030,-0.8882,0.5998,-0.261,-7.87,13.22,11.08,
768,1661605310030,-0.8862,0.947,-0.0164,-7.38,17.45,3.42,
769,1661605310030,-0.7803,0.8893,-0.2156,0.52,13.63,3.33,
770,1661605310030,-0.8515,0.6305,-0.6102,1.13,13.63,5.7,
771,1661605310030,-0.707,0.8068,-0.6634,-4.16,2.39,1.23,
772,1661605310030,-0.7246,1.0842,-0.5799,-3.17,-4.8,-0.68,
773,1661605310030,-0.8408,0.7165,-0.3001,0.92,2.98,-1.6,
774,1661605310030,-0.727,0.6735,-0.743,6.52,-0.31,4.06,
775,1661605310030,-0.6943,0.946,0.0041,5.42,19.05,0.78,
776,1661605310030,-0.7519,0.9313,0.1135,1.13,11.86,-6.62,
777,1661605310030,-0.7388,0.4963,-0.6048,0.13,-2.86,-9.62,
778,1661605310030,-0.6557,0.4885,-0.2566,1.33,3.41,-10.89,
779,1661605310030,-0.8613,0.6369,-0.2542,7.51,-1.24,-13.09,
780,1661605310041,-0.8013,0.0817,-0.8157,12.62,-0.48,-13.73,
781,1661605310041,-0.853,-0.1234,-0.3079,7.12,2.05,-10.36,
782,1661605310041,-0.8076,-0.0355,-0.2063,-0.79,-8.95,-15.54,
783,1661605310041,-0.9507,-0.1683,-0.8079,0.62,-26.54,-6.69,
784,1661605310041,-0.915,-0.6263,-0.2815,-2.79,-18.17,-8.16,
785,1661605310041,-1.0366,-0.6175,0.0539,-12.26,-22.06,-4.88,
786,1661605310041,-0.7837,-0.411,-0.512,-17.95,-25.43,-9.81,
787,1661605310041,-1.0469,-0.7371,0.1994,-12.96,-13.94,-5.88,
788,1661605310041,-1.1435,-0.8748,0.3688,-21.37,-20.87,-6.62,
789,1661605310041,-1.1055,-0.4783,-0.4612,-29.08,-23.32,-7.79,
790,1661605310041,-1.0513,-0.6966,0.4035,-29.57,-6.49,-3.05,
791,1661605310041,-1.1328,-0.8421,0.0261,-26.96,-17.07,-4.33,
792,1661605310041,-1.041,-0.3485,-0.514,-29.55,-22.73,-1.78,
793,1661605310041,-1.2412,-0.5535,0.4655,-37.87,-16.98,-4.79,
794,1661605310041,-1.2524,-0.637,0.2077,-36.46,-26.71,-3.6,
795,1661605310041,-1.2197,-0.284,-0.0164,-39.06,-11.48,-5.61,
796,1661605310041,-1.2744,-0.3309,0.8811,-43.86,-2.6,-2.51,
797,1661605310041,-1.2881,-0.6483,0.5529,-43.07,-2.77,3.15,
798,1661605310041,-1.2095,-0.3455,0.4978,-38.55,0.79,2.51,
799,1661605310041,-1.2314,-0.1029,0.947,-38.57,14.91,-1.78,
800,1661605310041,-1.2768,-0.3577,0.6892,-39.33,12.47,5.99,
801,1661605310041,-1.2207,-0.5897,0.0793,-46.56,17.36,8.17,
802,1661605310041,-1.1836,-0.1087,0.4987,-50.75,10.84,6.52,
803,1661605310041,-1.189,-0.2557,0.0959,-44.05,4.34,7.25,
804,1661605310041,-1.1221,-0.4124,-0.0687,-41.53,1.64,14.74,
805,1661605310041,-1.1318,-0.095,0.404,-46.05,8.57,12.99,
806,1661605310041,-1.271,0.0231,0.299,-49.45,3.15,16.82,
807,1661605310041,-1.2222,-0.0477,0.2712,-45.15,2.89,16.38,
808,1661605310041,-1.2373,0.0275,0.8342,-44.06,5.68,16.19,
809,1661605310041,-1.1011,0.5099,0.758,-40.75,3.06,16.65,
810,1661605310041,-1.1372,0.4816,0.4143,-33.46,13.56,20.3,
811,1661605310041,-1.1035,0.5051,0.7126,-31.24,31.17,15.94,
812,1661605310041,-0.8096,0.9098,0.2814,-30.47,30.46,13.45,
813,1661605310041,-0.9853,0.9533,0.0217,-27.06,27.76,9.8,
814,1661605310041,-0.9595,0.6745,0.0266,-16.86,33.26,9.25,
815,1661605310057,-0.8281,0.7912,-0.1761,-17.05,16.59,8.72,
816,1661605310057,-0.8223,1.1584,-0.137,-22.56,15.08,5.24,
817,1661605310057,-0.7973,1.0168,-0.473,-14.87,0.45,7.8,
818,1661605310057,-0.8745,0.8068,0.0144,-6.16,25.14,4.34,
819,1661605310057,-0.8432,1.0959,-0.0501,-2.97,27.5,8.53,
820,1661605310057,-0.8223,1.1164,-0.2371,-5.58,32.25,-2.77,
821,1661605310057,-0.6621,0.965,0.0192,-8.07,28.19,2.32,
822,1661605310057,-0.8965,0.7951,0.0051,-3.47,18.88,-0.96,
823,1661605310057,-0.7715,0.8327,-0.5232,4.42,13.47,-1.51,
824,1661605310057,-0.7436,0.7028,-0.4061,10.21,19.14,-1.14,
825,1661605310057,-0.8066,0.5173,-0.2811,5.83,18.97,-1.78,
826,1661605310057,-0.8237,0.5339,-0.6395,2.02,0.02,-2.42,
827,1661605310057,-0.647,0.5387,-0.6897,4.03,-3.53,-1.05,
828,1661605310057,-0.8681,0.2961,-0.2962,8.31,-9.79,-0.5,
829,1661605310057,-0.7681,0.237,-0.5086,7.74,-11.73,-1.22,
830,1661605310057,-0.8799,0.3674,-0.4554,2.93,-10.81,-2.7,
831,1661605310057,-0.6142,0.3654,-0.1434,-0.56,7.32,-4.68,
832,1661605310057,-0.977,0.1105,-0.3865,2.52,-6.66,-2.42,
833,1661605310057,-0.8203,0.1159,-0.5677,2.23,-6.74,-6.25,
834,1661605310057,-0.9253,0.134,0.0051,-0.57,-16.9,-6.69,
835,1661605310057,-0.9487,-0.1429,-0.6272,1.42,-20.53,-7.79,
836,1661605310057,-0.8462,-0.1697,-0.804,0.81,-19.34,-5.61,
837,1661605310057,-0.915,-0.0833,0.2263,-10.07,0.86,-10.71,
838,1661605310057,-0.8486,-0.4334,-0.8284,-10.16,-30.18,-9.35,
839,1661605310057,-0.9267,-0.533,-0.0433,-13.86,-19.01,-6.34,
840,1661605310057,-1.0708,-0.2781,0.4763,-19.18,-14.7,-10.98,
841,1661605310057,-0.9355,-0.5941,-0.4915,-20.66,-19.43,-7.33,
842,1661605310057,-1.0771,-0.6248,0.5241,-25.26,-11.99,-8.71,
843,1661605310057,-1.1977,-0.5633,0.4494,-26.18,-4.54,-11.9,
844,1661605310057,-1.1416,-0.5799,-0.116,-23.48,-19.17,-6.34,
845,1661605310057,-1.1484,-0.7449,0.0432,-27.26,-4.89,-9.07,
846,1661605310057,-1.2163,-0.7791,0.7282,-33.08,-12.75,-4.05,
847,1661605310057,-1.2529,-0.828,-0.3558,-36.94,-17.72,-1.03,
848,1661605310057,-1.0156,-0.7474,0.2639,-41.85,-11.15,0.23,
849,1661605310072,-1.2583,-0.806,0.549,-43.67,-15.04,2.05,
850,1661605310072,-1.1787,-0.6297,-0.2498,-43.96,-17.24,5.97,
851,1661605310072,-1.2588,-0.6907,0.5861,-46.35,2.81,6.8,
852,1661605310072,-1.082,-0.4964,0.675,-50.23,-2.16,3.99,
853,1661605310072,-1.1714,-0.2464,0.0437,-48.87,0.62,4.34,
854,1661605310072,-1.2007,-0.3387,0.8879,-48.44,10.43,8.44,
855,1661605310072,-1.3535,-0.2318,0.8874,-45.27,4.34,7.89,
856,1661605310072,-1.2681,0.0246,0.2868,-47.75,-3.03,5.42,
857,1661605310072,-1.2895,0.1052,0.5832,-42.26,5.61,6.98,
858,1661605310072,-1.2148,0.1535,0.8796,-40.77,24.13,11.54,
859,1661605310072,-1.1357,0.3171,0.0651,-45.16,13.3,10.17,
860,1661605310072,-1.0757,0.4972,0.6291,-48.17,21.93,11.82,
861,1661605310072,-1.1289,0.426,0.5871,-41.54,18.29,9.16,
862,1661605310072,-1.1245,0.465,0.0881,-31.86,13.22,11.45,
863,1661605310072,-1.0054,0.7741,0.2307,-30.95,26.57,9.8,
864,1661605310072,-1.0439,0.7951,0.4118,-27.95,25.4,9.16,
865,1661605310072,-1.0093,0.4919,-0.3514,-25.26,22.44,9.89,
866,1661605310072,-0.9453,0.799,0.03,-22.96,27.5,8.17,
867,1661605310072,-0.8911,0.7761,0.1892,-20.67,28.19,10.08,
868,1661605310072,-0.959,0.5744,-0.2029,-14.15,12.79,8.98,
869,1661605310072,-0.8838,0.5861,-0.3924,-14.48,11.53,14.0,
870,1661605310072,-0.914,0.8434,0.3806,-14.17,16.52,11.82,
871,1661605310072,-1.0522,0.696,-0.0921,-11.47,12.03,14.64,
872,1661605310072,-0.8364,0.5676,-0.2649,-6.59,12.12,9.53,
873,1661605310072,-0.7969,0.8498,0.3713,-9.17,23.54,10.35,
874,1661605310072,-0.7676,0.8669,-0.2293,-0.99,15.42,5.79,
875,1661605310072,-0.8135,0.6359,-0.5589,5.42,14.4,11.91,
876,1661605310072,-0.6025,0.6994,-0.0511,0.74,25.31,10.53,
877,1661605310072,-0.645,1.0031,-0.556,-5.67,13.22,8.98,
878,1661605310072,-0.5752,0.7878,-0.9065,4.13,16.01,11.27,
879,1661605310072,-0.8266,0.4875,-0.1102,9.83,11.44,5.24,
880,1661605310072,-0.7671,0.6437,-0.2444,2.31,-1.93,4.25,
881,1661605310072,-0.667,0.905,-0.9358,0.14,-27.79,-3.58,
882,1661605310088,-0.8291,0.5109,-0.1048,5.01,-4.71,-3.6,
883,1661605310088,-0.8174,0.3786,-0.1155,8.92,-1.93,-5.06,
884,1661605310088,-0.7114,0.5763,-0.8162,4.31,10.09,-6.25,
885,1661605310088,-0.7622,0.4255,0.0739,4.22,12.46,-5.34,
886,1661605310088,-0.8535,0.1662,0.0808,4.54,4.58,-9.99,
887,1661605310088,-0.8086,-0.1087,-0.8011,1.91,-15.28,-8.25,
888,1661605310088,-0.8984,-0.0462,-0.5037,3.51,-10.98,-14.09,
889,1661605310088,-0.8843,-0.4158,-0.0457,0.83,-9.45,-12.26,
890,1661605310088,-1.0215,-0.7298,-0.7303,-8.37,-23.66,-7.98,
891,1661605310088,-0.8393,-0.4197,-0.1897,-13.27,-22.3,-8.8,
892,1661605310088,-1.1426,-0.7606,0.175,-11.29,-30.85,-8.98,
893,1661605310088,-1.0625,-0.9466,-0.1009,-20.78,-23.4,-8.89,
894,1661605310088,-1.063,-0.6141,0.1296,-30.76,-16.14,-7.98,
895,1661605310088,-1.0454,-0.7313,0.361,-29.75,-9.36,-1.87,
896,1661605310088,-1.0732,-0.9329,-0.1019,-26.76,-17.66,-9.07,
897,1661605310088,-1.0166,-0.4993,0.0856,-32.56,-18.24,-1.05,
898,1661605310088,-1.2749,-0.5032,0.1882,-37.17,-11.99,1.13,
899,1661605310088,-1.2407,-0.7498,-0.0433,-32.97,-18.59,4.89,
900,1661605310088,-1.2324,-0.3817,0.4641,-39.87,-14.11,-0.22,
901,1661605310088,-1.1528,-0.2664,0.5944,-45.85,-21.46,3.97,
902,1661605310088,-1.2397,-0.5355,0.1081,-40.55,-15.11,6.8,
903,1661605310088,-1.166,-0.5374,0.6359,-40.64,9.5,-0.04,
904,1661605310088,-1.2622,-0.1004,0.9255,-44.96,10.0,0.14,
905,1661605310088,-1.2812,-0.2703,0.341,-47.05,0.36,1.68,
906,1661605310088,-1.2861,-0.4241,0.8093,-46.05,6.87,1.59,
907,1661605310088,-1.248,-0.0911,0.8601,-46.05,9.41,-1.6,
908,1661605310088,-1.2783,-0.1585,0.0915,-42.86,6.11,-0.22,
909,1661605310088,-1.2676,-0.3411,0.3078,-41.56,22.1,3.97,
910,1661605310088,-1.1138,-0.2625,0.527,-44.15,26.33,6.98,
911,1661605310088,-1.1421,0.0612,-0.2083,-46.66,16.43,4.61,
912,1661605310088,-1.0337,-0.0062,0.0388,-46.56,14.32,10.72,
913,1661605310103,-1.1499,-0.0892,0.4929,-41.06,14.56,13.54,
914,1661605310103,-1.0708,0.3566,0.009,-41.36,4.25,15.83,
915,1661605310103,-1.0972,0.4479,0.4396,-36.88,3.99,12.09,
916,1661605310103,-1.2295,0.3581,0.8083,-28.85,15.42,17.0,
917,1661605310103,-1.2226,0.5383,0.4396,-30.66,10.67,11.91,
918,1661605310103,-0.8794,0.8615,-0.0428,-29.28,13.22,12.81,
919,1661605310103,-1.1079,0.8459,0.6916,-23.46,10.5,15.1,
920,1661605310103,-1.0093,0.7189,0.1716,-16.37,27.09,13.36,
921,1661605310103,-0.7446,1.0417,-0.596,-9.58,30.89,12.55,
922,1661605310103,-0.8496,1.0153,0.5983,-15.77,52.71,9.25,
923,1661605310103,-0.8193,0.8859,-0.7176,-14.08,0.19,9.07,
924,1661605310103,-0.7768,0.8591,-1.096,-17.28,-5.06,10.99,
925,1661605310103,-0.7768,1.1286,0.1291,-6.17,4.51,7.8,
926,1661605310103,-0.896,1.09,-0.0701,2.11,11.36,8.63,
927,1661605310103,-0.6562,0.798,-0.7327,3.32,23.28,6.98,
928,1661605310103,-0.6763,1.07,-0.0237,-1.58,37.83,2.51,
929,1661605310103,-0.6719,0.9426,-0.0779,-0.27,31.99,2.87,
930,1661605310103,-0.8193,0.5602,-0.7112,3.93,8.06,-1.78,
931,1661605310103,-0.793,0.6462,-0.2088,3.33,6.71,2.78,
932,1661605310103,-0.7119,0.4933,-0.4461,6.63,-4.89,4.25,
933,1661605310103,-0.8618,0.3381,-0.8362,7.82,-10.89,0.14,
934,1661605310103,-0.811,0.3322,-0.5555,5.12,-0.24,-0.5,
935,1661605310103,-0.8545,0.216,-0.1561,2.65,-2.08,1.07,
936,1661605310103,-0.5903,0.2687,-0.8836,2.4,-14.02,-3.6,
937,1661605310103,-0.8164,0.0549,-0.2127,4.83,-9.12,-3.14,
938,1661605310103,-0.9106,0.0519,-0.0384,5.19,-6.57,-3.78,
939,1661605310103,-0.6562,0.1315,-0.5076,-1.99,-17.07,-7.06,
940,1661605310103,-0.8467,-0.0384,-0.3714,-1.98,5.61,-3.14,
941,1661605310103,-0.8911,-0.2498,-0.0848,-0.88,1.72,-6.62,
942,1661605310103,-0.7143,-0.3167,-0.8792,-9.97,-14.87,-9.71,
943,1661605310103,-0.9145,-0.222,0.0964,-14.67,-25.09,-12.26,
944,1661605310103,-0.9814,-0.4559,-0.325,-8.88,-26.02,-8.07,
945,1661605310103,-0.9897,-0.4647,-0.2967,-16.78,-12.08,-12.08,
946,1661605310103,-1.1567,-0.2904,0.3161,-26.58,-26.28,-8.34,
947,1661605310103,-1.0727,-0.5804,-0.0247,-21.16,-25.69,-10.08,
948,1661605310119,-1.1611,-0.5858,0.3469,-24.16,-6.07,-7.88,
949,1661605310119,-1.1811,-0.5218,0.3718,-30.95,-13.09,-6.16,
950,1661605310119,-1.146,-0.6273,0.1706,-29.46,-18.0,-4.6,
951,1661605310119,-1.2456,-0.6912,0.4641,-28.76,-9.96,-2.86,
952,1661605310119,-1.1865,-0.7474,0.1232,-33.37,-4.54,0.87,
953,1661605310119,-1.1548,-0.7396,0.2512,-40.35,-11.15,1.06,
954,1661605310119,-1.3179,-0.8323,0.4904,-42.57,-9.12,0.69,
955,1661605310119,-1.1885,-0.8187,0.2761,-41.56,-17.14,-0.96,
956,1661605310119,-1.2344,-0.6478,0.197,-49.52,-9.94,4.26,
957,1661605310119,-1.3218,-0.6878,0.7707,-50.85,-3.37,6.61,
958,1661605310119,-1.3061,-0.4559,0.4528,-49.85,-2.34,9.16,
959,1661605310119,-1.2461,-0.2249,0.5461,-50.24,0.45,11.36,
960,1661605310119,-1.3911,-0.242,0.8957,-48.87,7.04,10.99,
961,1661605310119,-1.2656,-0.0379,0.2331,-44.54,7.39,11.1,
962,1661605310119,-1.2739,0.0348,0.4724,-43.56,18.88,8.44,
963,1661605310119,-1.1821,0.1203,0.7634,-44.55,25.14,10.99,
964,1661605310119,-1.1636,0.2477,0.2468,-43.45,8.81,14.0,
965,1661605310119,-1.0137,0.3469,0.1618,-40.06,11.95,14.0,
966,1661605310119,-1.1181,0.6403,0.6486,-35.35,22.27,12.64,
967,1661605310119,-1.0473,0.4753,-0.0682,-34.63,15.27,11.83,
968,1661605310119,-1.1015,0.6608,0.4733,-36.26,22.01,7.99,
969,1661605310119,-1.1128,0.904,0.6022,-31.96,19.14,6.15,
970,1661605310119,-0.9946,0.7648,0.0808,-26.06,15.42,8.17,
971,1661605310119,-0.9092,0.7145,0.0847,-20.46,32.75,7.07,
972,1661605310119,-0.9795,0.7858,0.2829,-18.58,36.05,8.72,
973,1661605310119,-0.8681,0.7101,-0.4285,-19.05,28.02,7.25,
974,1661605310119,-0.7851,0.8039,-0.221,-14.96,24.3,9.53,
975,1661605310119,-0.8906,0.695,-0.0569,-11.36,23.11,9.07,
976,1661605310119,-0.9253,0.6711,-0.4534,-8.55,5.87,10.09,
977,1661605310119,-0.6074,0.655,-0.5247,-9.88,9.07,7.25,
978,1661605310119,-0.8105,0.5724,0.0354,-8.36,6.46,8.37,
979,1661605310119,-0.9189,0.8122,-0.3279,-4.27,6.28,9.62,
980,1661605310119,-0.9184,0.5851,-0.3147,1.33,6.45,5.97,
981,1661605310119,-0.7944,0.547,0.0632,2.13,15.83,2.32,
982,1661605310119,-0.7754,0.6906,0.069,-1.89,14.49,7.53,
983,1661605310135,-0.6723,0.9426,-0.6897,-2.36,-0.74,0.51,
984,1661605310135,-0.6245,0.6799,-0.3694,1.64,-4.37,2.87,
985,1661605310135,-0.7627,0.4831,0.0324,2.92,-0.82,-3.5,
986,1661605310135,-0.6816,0.633,-0.8606,7.21,-11.91,-6.53,
987,1661605310135,-0.6841,0.7858,-0.9598,9.62,11.53,-6.53,
988,1661605310135,-0.8672,0.5358,0.1159,8.23,12.37,-9.44,
989,1661605310135,-0.7441,0.2678,-1.1185,0.13,-7.33,-3.96,
990,1661605310135,-0.5683,0.3796,-1.1058,-0.99,-12.15,-10.71,
991,1661605310135,-0.7305,0.464,0.2077,3.62,-5.3,-11.53,
992,1661605310135,-0.8852,0.05,-0.3904,8.03,-14.78,-11.26,
993,1661605310135,-0.8701,-0.0159,-0.5442,-4.76,1.04,-14.08,
994,1661605310135,-0.9414,-0.0477,0.3879,-4.66,4.51,-11.35,
995,1661605310135,-1.0283,-0.5286,-0.5813,1.01,-15.45,-10.98,
996,1661605310135,-0.9756,-0.5291,-0.3343,-8.77,-19.01,-7.33,
997,1661605310135,-1.0947,-0.513,0.2292,-15.06,-14.87,-7.15,
998,1661605310135,-1.0986,-0.8563,-0.4197,-11.88,-24.33,-2.7,
999,1661605310135,-1.1152,-0.8016,0.0046,-22.38,-26.19,-6.62,
1000,1661605310135,-1.0522,-0.682,0.2131,-28.65,-25.61,-7.43,
1001,1661605310135,-1.2026,-0.9354,-0.1233,-31.47,-22.13,-3.69,
1002,1661605310135,-1.1294,-0.8514,0.3732,-32.65,-10.63,-8.98,
1003,1661605310135,-1.0932,-0.4647,0.0222,-35.97,-29.5,-3.6,
1004,1661605310135,-1.2764,-0.7069,0.197,-38.75,-21.89,-2.96,
1005,1661605310135,-1.2456,-0.6834,0.1916,-36.97,-21.29,3.79,
1006,1661605310135,-1.2612,-0.5316,0.2546,-40.26,3.99,3.06,
1007,1661605310135,-1.3188,-0.2537,0.5852,-45.16,-7.5,7.44,
1008,1661605310135,-1.3496,-0.5389,0.1306,-48.15,-13.09,7.53,
1009,1661605310135,-1.2148,-0.2479,0.7253,-47.36,-5.23,9.53,
1010,1661605310135,-1.3638,-0.0447,0.5798,-42.34,-0.22,8.0,
1011,1661605310135,-1.3589,-0.4036,0.3073,-44.26,5.18,12.27,
1012,1661605310135,-1.3491,-0.1292,1.2653,-53.86,19.05,6.43,
1013,1661605310135,-1.3013,0.0969,0.4602,-49.46,-0.48,6.89,
1014,1661605310135,-1.2309,-0.0443,0.0666,-42.86,1.79,8.26,
1015,1661605310135,-1.2319,-0.2186,0.9099,-39.87,18.88,12.9,
1016,1661605310150,-1.2031,-0.0457,0.5549,-44.55,19.39,10.08,
1017,1661605310150,-1.1665,0.1467,0.0583,-42.25,11.44,8.44,
1018,1661605310150,-1.2695,0.0021,0.7409,-40.54,18.9,13.55,
1019,1661605310150,-1.1396,0.1393,0.3645,-41.56,14.82,11.17,
1020,1661605310150,-1.0615,0.4743,-0.3309,-39.96,20.15,10.26,
1021,1661605310154,-1.0503,0.3776,-0.1048,-35.96,37.57,10.63,
1022,1661605310154,-0.9448,0.3503,0.2863,-31.67,35.8,10.63,
1023,1661605310154,-0.9565,0.716,-0.2303,-31.35,18.62,10.26,
1024,1661605310154,-0.8681,0.694,-0.1585,-22.96,21.75,16.1,
1025,1661605310154,-0.8828,0.6144,0.1252,-19.28,28.43,13.45,
1026,1661605310154,-0.8091,1.0134,-0.0154,-15.68,21.34,10.53,
1027,1661605310154,-0.8794,0.9714,-0.262,-16.66,-10.81,6.43,
1028,1661605310154,-0.9277,0.8239,0.2194,-8.16,14.73,7.34,
1029,1661605310154,-0.8628,1.0402,-0.095,-6.59,25.23,6.06,
1030,1661605310154,-0.8237,0.9655,-0.3006,-8.88,38.41,6.34,
1031,1661605310154,-0.7934,1.0065,0.2687,-11.16,33.18,6.43,
1032,1661605310154,-0.8125,0.8161,-0.2308,-3.49,10.0,5.06,
1033,1661605310154,-0.5688,1.0207,-0.6209,-0.79,3.15,5.7,
1034,1661605310154,-0.6758,1.0676,-0.41,3.82,1.03,1.06,
1035,1661605310154,-0.686,0.7692,-0.5042,4.74,3.49,0.14,
1036,1661605310154,-0.7886,0.735,-0.6141,7.65,-2.42,1.07,
1037,1661605310154,-0.7187,0.7331,-0.3855,5.62,6.95,-0.5,
1038,1661605310154,-0.6982,0.3654,-0.5516,7.13,-3.7,0.6,
1039,1661605310154,-0.7231,0.2902,-0.6556,1.84,-5.39,-2.24,
1040,1661605310154,-0.7392,0.3469,-0.326,4.31,-5.23,-2.42,
1041,1661605310163,-0.7612,0.2472,-0.3104,4.72,-4.37,-7.88,
1042,1661605310163,-0.6684,0.0676,-0.513,1.62,-7.5,-5.61,
1043,1661605310163,-0.8901,-0.0286,-0.3616,3.24,-6.31,-4.77,
1044,1661605310163,-0.8008,0.0676,-0.4148,0.04,-4.46,-4.88,
1045,1661605310163,-0.8818,-0.0404,-0.4979,-0.99,-8.95,-7.15,
1046,1661605310163,-0.7847,-0.2806,-0.3099,-3.98,-17.91,-5.79,
1047,1661605310163,-0.9526,-0.2176,-0.3675,-5.98,-26.96,-9.62,
1048,1661605310163,-0.8813,-0.3538,-0.4832,-6.17,-21.37,-0.32,
1049,1661605310163,-1.0708,-0.5335,-0.0511,-13.38,-3.53,-7.7,
1050,1661605310163,-1.1069,-0.3216,0.1682,-19.46,-13.09,-8.52,
1051,1661605310163,-1.0698,-0.5325,-0.4114,-22.26,-27.98,-4.97,
1052,1661605310163,-1.0898,-0.5882,0.2248,-25.57,-13.42,-10.36,
1053,1661605310163,-1.1367,-0.5247,0.1535,-29.06,-6.49,-5.88,
1054,1661605310163,-1.0527,-0.5081,-0.0799,-33.67,-11.06,-7.61,
1055,1661605310163,-1.1567,-0.5467,0.3249,-31.96,-21.46,-9.71,
1056,1661605310163,-1.1636,-0.5892,0.2058,-31.37,-21.13,-4.88,
1057,1661605310163,-1.084,-0.4886,0.2102,-35.06,-4.46,-6.97,
1058,1661605310163,-1.1811,-0.6971,0.4567,-39.33,-9.1,-7.04,
1059,1661605310163,-1.3359,-0.7591,0.277,-40.25,-21.55,-4.15,
1060,1661605310163,-1.2285,-0.6263,0.5827,-39.06,-12.66,2.32,
1061,1661605310163,-1.3642,-0.7567,0.6311,-41.85,-4.37,3.15,
1062,1661605310163,-1.3335,-0.721,0.4641,-47.66,-2.34,2.6,
1063,1661605310163,-1.2539,-0.5526,0.4812,-52.65,-1.08,6.61,
1064,1661605310163,-1.289,-0.4539,0.7214,-50.67,4.42,4.98,
1065,1661605310163,-1.2012,-0.2757,0.4006,-47.36,0.53,11.36,
1066,1661605310163,-1.1997,-0.2576,0.5222,-46.64,8.9,8.26,
1067,1661605310163,-1.1562,-0.0159,0.5852,-46.66,8.99,9.62,
1068,1661605310163,-1.1572,0.0597,0.3142,-47.75,13.39,10.44,
1069,1661605310163,-1.1684,0.197,0.3908,-45.47,13.3,14.73,
1070,1661605310163,-1.1621,0.2663,0.3664,-43.06,18.29,14.09,
1071,1661605310163,-1.1123,0.4826,0.4045,-41.67,21.17,11.08,
1072,1661605310163,-1.1274,0.5964,0.1999,-38.37,21.08,10.44,
1073,1661605310163,-1.0649,0.6413,0.2331,-37.96,20.07,8.9,
1074,1661605310163,-1.1289,0.7985,0.4616,-37.74,23.87,4.16,
1075,1661605310163,-1.0312,0.842,0.1418,-30.66,20.15,9.98,
1076,1661605310179,-0.9971,0.8747,0.1921,-23.07,28.69,5.15,
1077,1661605310179,-0.9092,0.8942,0.3664,-18.96,29.79,5.06,
1078,1661605310179,-0.9438,0.839,-0.0501,-16.26,25.9,7.8,
1079,1661605310179,-0.9292,0.7946,0.0642,-11.87,25.82,9.43,
1080,1661605310179,-0.9043,0.7555,-0.1341,-12.38,24.47,6.8,
1081,1661605310182,-0.8735,0.7512,-0.3777,-12.77,20.41,5.42,
1082,1661605310182,-0.7095,0.7013,-0.4441,-8.95,18.06,6.99,
1083,1661605310182,-0.8223,0.6315,-0.2498,-4.85,15.1,7.73,
1084,1661605310182,-0.8418,0.6637,-0.4993,-3.47,9.91,10.44,
1085,1661605310182,-0.8125,0.697,-0.4715,-4.07,8.31,3.79,
1086,1661605310182,-0.8457,0.5685,-0.0809,-3.06,7.3,3.7,
1087,1661605310182,-0.6914,0.5095,-0.1639,-4.88,2.05,5.24,
1088,1661605310182,-0.77,0.7077,-0.4739,-1.58,-2.77,5.42,
1089,1661605310182,-0.7056,0.6696,-0.1961,1.21,10.6,9.62,
1090,1661605310182,-0.8276,0.4723,-0.3079,6.63,16.85,4.98,
1091,1661605310182,-0.7529,0.5759,-0.4725,2.42,25.47,-1.32,
1092,1661605310182,-0.7724,0.6628,-0.5276,-0.57,-3.03,-2.6,
1093,1661605310182,-0.751,0.5534,-0.4451,-1.18,-17.24,-7.79,
1094,1661605310182,-0.7041,0.3781,-0.5355,7.02,-13.09,-4.05,
1095,1661605310182,-0.6753,0.361,-0.7601,2.61,10.09,-6.25,
1096,1661605310182,-0.6562,0.3303,-0.3245,-1.96,1.21,-8.25,
1097,1661605310182,-0.8076,0.0163,-0.5359,-3.78,-11.06,-10.54,
1098,1661605310182,-0.769,0.1032,-0.451,-2.67,-23.49,-8.89,
1099,1661605310182,-0.9346,-0.1551,-0.0501,-4.15,-10.87,-12.34,
1100,1661605310182,-0.9736,-0.3655,-0.2303,-7.36,-6.57,-12.63,
1101,1661605310182,-1.0015,-0.3455,-0.0955,-11.07,-9.96,-8.89,
1102,1661605310182,-0.9482,-0.4129,0.0363,-11.35,-18.91,-10.25,
1103,1661605310182,-1.0879,-0.7552,-0.1741,-14.15,-18.59,-8.52,
1104,1661605310193,-0.9912,-0.8138,-0.0335,-23.65,-20.18,-9.33,
1105,1661605310193,-1.0874,-0.7073,-0.0271,-29.44,-19.49,-4.22,
1106,1661605310193,-1.0815,-0.8363,-0.0022,-27.55,-29.67,-5.52,
1107,1661605310193,-1.2339,-1.0218,0.113,-33.85,-21.55,-2.86,
1108,1661605310193,-0.9902,-0.6121,0.2238,-35.35,-23.58,-2.15,
1109,1661605310193,-1.2363,-0.7567,0.1394,-38.75,-26.12,-1.23,
1110,1661605310193,-1.2012,-0.7977,0.4528,-40.95,-17.31,4.16,
1111,1661605310193,-1.1802,-0.4876,0.2058,-44.95,-2.1,4.16,
1112,1661605310193,-1.2178,-0.4984,0.4172,-46.44,-1.5,5.06,
1113,1661605310193,-1.29,-0.5164,0.5329,-45.47,-2.1,8.26,
1114,1661605310193,-1.3017,-0.1697,0.5769,-46.75,-7.59,5.7,
1115,1661605310193,-1.3027,-0.1473,0.2751,-46.46,-3.53,6.25,
1116,1661605310193,-1.3071,-0.2962,0.591,-42.75,3.32,4.98,
1117,1661605310193,-1.3315,-0.2752,0.8498,-49.54,13.72,3.97,
1118,1661605310193,-1.2715,0.0622,0.6691,-50.26,7.88,2.78,
1119,1661605310193,-1.2095,-0.0443,0.5041,-44.25,19.55,8.53,
1120,1661605310193,-1.1352,-0.0794,0.8239,-41.97,19.81,2.78,
1121,1661605310193,-1.0879,0.1393,0.4377,-44.87,15.83,5.15,
1122,1661605310193,-1.1909,0.0749,0.3981,-44.26,13.63,6.8,
1123,1661605310193,-1.1714,0.0446,0.4743,-41.47,22.94,9.89,
1124,1661605310193,-1.1924,0.2053,0.5363,-39.26,20.24,6.52,
1125,1661605310193,-1.0771,0.3566,0.2487,-38.95,17.95,8.98,
1126,1661605310193,-1.1391,0.2316,0.2951,-33.87,14.82,8.08,
1127,1661605310193,-0.9795,0.3337,0.3386,-32.85,19.9,6.8,
1128,1661605310193,-0.9028,0.7194,0.2316,-30.56,21.08,6.8,
1129,1661605310193,-1.0864,0.7438,0.1232,-26.18,21.08,7.53,
1130,1661605310193,-0.9429,0.4704,-0.0193,-23.68,23.7,12.81,
1131,1661605310193,-0.7925,0.8351,0.2336,-20.27,28.78,7.25,
1132,1661605310193,-1.0039,1.0485,-0.1243,-15.38,15.49,10.08,
1133,1661605310193,-0.8911,0.7878,-0.4495,-12.98,20.74,4.8,
1134,1661605310193,-0.7734,0.7902,-0.5936,-5.56,26.83,11.36,
1135,1661605310193,-0.7685,1.0461,-0.0047,-9.27,50.68,8.44,
1136,1661605310193,-0.772,1.1618,-0.1614,-7.36,20.84,5.51,
1137,1661605310193,-0.8081,0.8141,-0.7054,-9.68,4.42,3.24,
1138,1661605310193,-0.7139,0.8722,-0.0057,-3.58,7.47,1.5,
1139,1661605310193,-0.7226,1.1428,-0.3973,-1.15,3.17,4.63,
1140,1661605310193,-0.6875,0.6808,-0.6878,3.84,12.2,1.5,
1141,1661605310208,-0.7075,0.7448,-0.2591,-1.47,24.13,-1.51,
1142,1661605310208,-0.7822,0.8683,-0.0369,-2.48,13.89,-1.96,
1143,1661605310208,-0.7578,0.633,-0.7928,1.64,-3.96,-1.05,
1144,1661605310208,-0.7451,0.4885,-0.3333,6.83,-0.24,-6.69,
1145,1661605310208,-0.6987,0.2761,-0.5086,4.03,-0.31,-7.15,
1146,1661605310208,-0.6841,0.3874,-0.9612,1.82,-12.15,-6.62,
1147,1661605310208,-0.6387,0.2541,-0.7264,0.62,-3.2,-6.62,
1148,1661605310208,-0.8911,-0.1492,-0.3055,1.21,-13.18,-6.16,
1149,1661605310208,-0.8203,-0.0267,-0.804,-4.88,-22.73,-10.98,
1150,1661605310208,-0.8921,-0.1488,-0.3147,-5.56,-27.05,-7.61,
1151,1661605310208,-0.917,-0.4022,-0.0809,-5.98,-17.83,-8.98,
1152,1661605310208,-0.9443,-0.3392,-0.4734,-6.59,-11.48,-8.71,
1153,1661605310208,-0.9624,-0.3353,0.0715,-13.38,-15.37,-10.45,
1154,1661605310208,-1.0713,-0.5711,-0.0013,-15.86,-35.07,-8.16,
1155,1661605310208,-1.0317,-0.5198,-0.243,-19.36,-9.36,1.13,
1156,1661605310208,-1.0473,-0.3245,0.0422,-24.45,-6.23,-0.68,
1157,1661605310208,-1.1489,-0.6351,-0.0052,-25.87,-16.38,-3.14,
1158,1661605310208,-1.1504,-0.5848,-0.1961,-22.76,-22.73,-2.42,
1159,1661605310208,-1.1313,-0.2796,0.2438,-35.46,-9.79,-8.98,
1160,1661605310208,-1.2368,-0.5814,0.2268,-37.64,-12.06,-9.79,
1161,1661605310208,-1.2495,-0.6824,0.1857,-35.96,-15.88,-6.88,
1162,1661605310208,-1.2412,-0.2874,0.6247,-40.16,-9.79,-8.62,
1163,1661605310208,-1.2353,-0.4783,0.4836,-41.16,-5.82,-7.52,
1164,1661605310208,-1.3032,-0.66,0.3518,-38.36,-4.13,-1.41,
1165,1661605310208,-1.2895,-0.6849,0.5969,-41.47,6.61,-1.69,
1166,1661605310208,-1.3281,-0.3851,0.5681,-45.15,-5.82,0.69,
1167,1661605310208,-1.3325,-0.6624,0.2902,-46.26,-4.2,8.63,
1168,1661605310208,-1.2861,-0.6986,0.6188,-48.24,-0.31,10.99,
1169,1661605310208,-1.3017,-0.3533,0.4479,-52.15,-0.48,11.17,
1170,1661605310208,-1.248,-0.3529,0.405,-48.84,-0.56,8.09,
1171,1661605310208,-1.3618,-0.4295,0.7702,-47.95,3.32,11.54,
1172,1661605310208,-1.3545,-0.0418,0.5817,-50.55,7.8,11.54,
1173,1661605310208,-1.1806,0.0641,0.4001,-52.13,10.69,10.92,
1174,1661605310208,-1.1357,0.0041,0.6623,-47.14,19.81,9.07,
1175,1661605310224,-1.2344,0.1301,0.5969,-44.66,17.45,10.53,
1176,1661605310224,-1.1557,0.5837,0.3376,-42.86,16.18,10.99,
1177,1661605310224,-1.1704,0.4972,0.2609,-36.23,16.36,17.57,
1178,1661605310224,-1.1245,0.5612,0.4763,-38.66,34.28,16.56,
1179,1661605310224,-1.0078,0.9406,-0.1263,-36.57,24.04,18.38,
1180,1661605310224,-0.8511,0.9123,-0.1648,-31.08,24.97,15.19,
1181,1661605310224,-0.9809,0.7819,0.4523,-23.77,26.57,13.81,
1182,1661605310224,-0.9292,0.8478,-0.1082,-21.66,23.54,7.16,
1183,1661605310224,-0.8262,1.0485,-0.1053,-20.56,38.84,7.8,
1184,1661605310224,-0.8872,0.965,0.2546,-14.86,40.11,2.32,
1185,1661605310224,-0.7485,0.7145,-0.5711,-12.57,27.93,1.77,
1186,1661605310224,-0.6977,0.9362,-0.3035,-11.68,28.02,0.14,
1187,1661605310224,-0.8193,0.777,-0.221,-7.67,23.96,2.23,
1188,1661605310224,-0.854,0.5627,-0.5809,-0.38,12.12,3.33,
1189,1661605310224,-0.7153,0.5925,-0.5486,-2.79,12.79,0.97,
1190,1661605310224,-0.7641,0.7258,-0.0804,-3.47,10.93,3.7,
1191,1661605310224,-0.7275,0.4377,-0.6087,-1.15,1.56,6.81,
1192,1661605310224,-0.727,0.4435,-0.4246,-3.95,1.9,3.16,
1193,1661605310224,-0.8159,0.6218,-0.0853,-7.67,4.42,-1.32,
1194,1661605310224,-0.7451,0.6833,-0.2063,-3.38,-1.24,-1.32,
1195,1661605310224,-0.7095,0.384,-0.7117,4.11,0.02,-2.6,
1196,1661605310236,-0.6582,0.5182,-0.3494,3.04,0.63,0.89,
1197,1661605310236,-0.7314,0.5881,-0.5262,-3.49,0.53,-3.78,
1198,1661605310236,-0.7519,0.6711,-0.8733,-1.67,-25.09,-5.43,
1199,1661605310236,-0.7617,0.1691,-0.8821,4.13,-12.75,-2.24,
1200,1661605310236,-0.8515,0.4196,-0.0145,3.13,-6.23,-4.51,
1201,1661605310236,-0.7627,0.3552,-0.8812,0.51,-12.41,-4.97,
1202,1661605310236,-0.688,-0.0584,-0.3348,-6.37,-8.69,-1.6,
1203,1661605310236,-0.897,0.0851,0.1315,-11.27,-12.49,-5.24,
1204,1661605310236,-0.8428,-0.1365,-0.6868,-6.46,-21.13,-9.44,
1205,1661605310236,-0.9941,-0.2469,0.302,-7.36,-2.77,-10.08,
1206,1661605310236,-1.0273,-0.2899,0.175,-15.88,0.95,-8.52,
1207,1661605310236,-1.0327,-0.3997,-0.4817,-20.56,-22.56,-11.62,
1208,1661605310236,-1.022,-0.5667,-0.0882,-18.24,-17.46,-12.8,
1209,1661605310236,-1.1435,-0.8758,-0.2337,-20.96,-11.74,-11.26,
1210,1661605310236,-1.0288,-0.6561,-0.3025,-29.57,-24.85,-8.25,
1211,1661605310236,-1.3081,-0.9266,0.5954,-33.26,-20.44,-10.36,
1212,1661605310236,-1.1733,-1.0306,-0.0687,-32.77,-24.51,-4.24,
1213,1661605310236,-1.2627,-0.7235,0.1657,-41.45,-19.77,-2.86,
1214,1661605310236,-1.2012,-0.7874,0.7683,-46.85,-10.38,-4.69,
1215,1661605310236,-1.188,-0.7835,0.4709,-43.79,-19.01,5.97,
1216,1661605310236,-1.2724,-0.6741,0.2399,-46.03,-8.93,2.89,
1217,1661605310236,-1.2314,-0.4945,0.6335,-47.56,-14.7,1.5,
1218,1661605310236,-1.272,-0.494,0.4753,-47.45,-2.1,2.69,
1219,1661605310236,-1.2231,-0.3406,0.3,-47.07,-0.48,3.33,
1220,1661605310236,-1.1748,-0.263,0.5148,-46.55,5.77,3.24,
1221,1661605310236,-1.3135,-0.178,0.757,-47.85,3.49,7.89,
1222,1661605310236,-1.2724,-0.1029,0.4196,-53.06,0.28,7.07,
1223,1661605310236,-1.2334,-0.0238,0.5178,-52.67,5.85,6.52,
1224,1661605310236,-1.2568,0.0226,0.9299,-50.15,14.49,7.99,
1225,1661605310236,-1.1684,-0.0052,0.509,-46.44,15.49,8.81,
1226,1661605310236,-1.0625,0.2238,0.5368,-45.05,29.36,6.98,
1227,1661605310236,-1.189,0.339,0.6662,-43.13,23.55,6.44,
1228,1661605310236,-1.1933,0.1799,0.341,-42.55,20.58,9.25,
1229,1661605310236,-1.2431,0.2721,0.4162,-39.97,20.32,8.9,
1230,1661605310236,-1.0874,0.4177,0.4855,-36.95,24.38,10.81,
1231,1661605310236,-1.1069,0.4133,0.1765,-34.05,20.84,5.88,
1232,1661605310252,-0.9414,0.4294,0.1916,-33.37,24.8,8.26,
1233,1661605310252,-0.9053,0.5763,0.3713,-32.97,27.17,13.63,
1234,1661605310252,-0.9795,0.6413,-0.1497,-25.77,23.2,13.91,
1235,1661605310252,-0.9463,0.5939,-0.2103,-23.68,24.97,14.91,
1236,1661605310252,-0.9761,0.7126,0.236,-24.26,29.03,13.26,
1237,1661605310252,-0.8501,0.8298,0.0251,-17.34,30.31,12.11,
1238,1661605310252,-0.9087,0.7902,-0.5765,-9.58,24.63,13.81,
1239,1661605310255,-0.7978,0.8117,-0.2884,-10.08,28.78,13.63,
1240,1661605310255,-0.6782,0.9953,-0.8602,-10.68,13.72,11.27,
1241,1661605310255,-0.8286,0.8849,-0.5975,-3.98,17.19,14.64,
1242,1661605310255,-0.8603,0.7287,0.0217,-3.69,23.7,10.72,
1243,1661605310255,-0.7768,0.9811,-0.2728,-5.47,2.48,8.26,
1244,1661605310255,-0.6391,0.9806,-0.9246,-8.26,-5.47,3.51,
1245,1661605310255,-0.7705,0.7966,0.1359,-2.48,9.67,3.88,
1246,1661605310255,-0.6919,0.7106,-0.5311,1.73,0.95,1.41,
1247,1661605310255,-0.5991,0.9518,-0.3553,-1.69,14.15,-2.15,
1248,1661605310255,-0.6533,1.0129,-0.0188,-0.97,9.41,-5.88,
1249,1661605310255,-0.7412,0.4406,-0.4129,0.23,12.79,-4.6,
1250,1661605310255,-0.5996,0.3771,-0.8821,2.43,-3.96,-5.34,
1251,1661605310255,-0.7373,0.5119,-0.5027,3.51,-1.17,-7.88,
1252,1661605310255,-0.8774,0.0055,-0.7464,7.21,-23.83,-12.26,
1253,1661605310255,-0.8535,-0.1678,-0.7781,2.51,-22.23,-10.45,
1254,1661605310255,-0.831,-0.055,-0.3128,-9.38,-19.01,-7.06,
1255,1661605310255,-0.9551,-0.3865,-0.4026,-5.67,-20.87,-5.15,
1256,1661605310255,-0.8706,-0.5794,-0.2723,-5.47,-24.68,-10.36,
1257,1661605310255,-1.019,-0.5291,0.0148,-17.36,-19.51,-3.6,
1258,1661605310255,-0.8589,-0.2127,0.0031,-16.28,-15.97,-9.81,
1259,1661605310255,-1.0635,-0.7571,-0.075,-19.18,-7.76,-9.53,
1260,1661605310255,-0.8769,-0.7073,-0.0369,-24.85,-19.69,-6.07,
1261,1661605310255,-0.9746,-0.3045,-0.2142,-27.66,-11.32,-13.45,
1262,1661605310255,-1.0849,-0.7078,0.0378,-26.18,-19.51,-2.96,
1263,1661605310255,-1.0757,-0.7147,-0.1082,-35.75,-19.1,-5.24,
1264,1661605310255,-1.1035,-0.2132,-0.0257,-38.05,-19.17,-2.15,
1265,1661605310255,-1.2358,-0.5853,0.0788,-40.66,-13.51,-3.05,
1266,1661605310255,-1.2939,-0.7113,0.4528,-40.26,-15.54,-3.96,
1267,1661605310255,-1.3418,-0.1741,0.635,-45.15,-10.63,-3.6,
1268,1661605310255,-1.3813,-0.3475,0.5524,-44.14,-3.95,-8.88,
1269,1661605310255,-1.2983,-0.7523,0.7663,-44.26,4.25,-3.6,
1270,1661605310255,-1.2641,-0.2913,0.5153,-43.96,0.95,-6.53,
1271,1661605310255,-1.2641,-0.2811,0.3967,-44.57,6.37,-0.68,
1272,1661605310255,-1.2949,-0.7962,0.5275,-44.87,4.08,0.78,
1273,1661605310255,-1.2881,-0.4119,0.4279,-52.74,-1.17,9.43,
1274,1661605310271,-1.2617,-0.1683,0.3889,-52.44,-6.33,5.15,
1275,1661605310271,-1.2895,-0.3929,0.5852,-47.97,-0.41,7.25,
1276,1661605310271,-1.2519,-0.6068,0.6442,-46.56,2.56,8.63,
1277,1661605310271,-1.2334,-0.0399,0.5153,-55.26,6.87,10.99,
1278,1661605310271,-1.2959,0.07,0.6799,-52.94,17.69,13.81,
1279,1661605310271,-1.3017,-0.1551,0.6882,-48.46,17.52,16.38,
1280,1661605310271,-1.1772,0.426,0.6491,-47.77,19.72,12.99,
1281,1661605310271,-1.0449,0.6266,0.4997,-43.25,22.68,11.54,
1282,1661605310271,-0.9902,0.383,0.2473,-34.46,33.26,15.74,
1283,1661605310271,-1.021,0.4929,0.0671,-34.05,26.57,14.36,
1284,1661605310271,-0.9311,0.8762,0.0534,-34.95,24.63,13.81,
1285,1661605310271,-1.0991,0.9484,0.3962,-31.73,24.15,11.65,
1286,1661605310271,-0.9521,0.6691,-0.2762,-26.27,14.23,17.37,
1287,1661605310271,-0.9175,1.0344,0.1062,-24.45,28.02,10.81,
1288,1661605310271,-0.8916,1.131,0.3835,-22.07,38.67,15.19,
1289,1661605310271,-0.8496,0.8171,-0.2557,-15.07,27.5,11.91,
1290,1661605310271,-0.772,0.8371,-0.2791,-17.48,34.95,12.09,
1291,1661605310271,-0.8115,1.1779,0.0378,-10.07,27.93,9.34,
1292,1661605310271,-0.7495,0.6818,-0.7659,-6.37,29.96,8.26,
1293,1661605310271,-0.7588,0.6003,-0.5184,-3.28,22.61,6.89,
1294,1661605310271,-0.7568,0.7917,-0.4041,-5.26,17.52,8.81,
1295,1661605310271,-0.7212,0.6413,-0.931,-0.38,-6.23,5.42,
1296,1661605310271,-0.6836,0.4098,-0.8016,-1.86,0.11,8.18,
1297,1661605310271,-0.7544,0.4045,-0.157,-3.96,-1.67,6.98,
1298,1661605310271,-0.6294,0.7463,-0.4974,-5.49,-0.31,1.41,
1299,1661605310271,-0.7822,0.4181,-0.3699,-4.16,-2.68,4.52,
1300,1661605310271,-0.7983,0.238,-0.1185,-2.38,4.68,0.97,
1301,1661605310271,-0.5542,0.4362,-0.3387,-0.36,-11.22,2.05,
1302,1661605310271,-0.6059,0.632,-0.6639,-0.65,-8.93,-1.58,
1303,1661605310271,-0.8393,0.3454,-0.4866,0.94,6.54,-4.88,
1304,1661605310271,-0.6943,0.1887,-0.9437,1.42,11.44,-3.6,
1305,1661605310271,-0.7139,0.3127,-0.4559,-6.88,0.02,-9.44,
1306,1661605310286,-0.8203,0.0392,-0.3851,-10.66,-24.76,-10.62,
1307,1661605310286,-0.7109,-0.0335,-0.9808,-2.57,-48.1,-11.16,
1308,1661605310286,-0.8667,0.0095,0.0251,-9.36,4.75,-8.07,
1309,1661605310286,-0.9863,-0.0028,0.3732,-17.18,-0.15,-12.08,
1310,1661605310286,-1.0683,-0.3333,-0.282,-20.78,-24.68,-6.16,
1311,1661605310286,-1.0117,-0.3206,0.1325,-18.08,-14.52,-13.54,
1312,1661605310286,-1.0742,-0.2445,0.2678,-22.26,-1.34,-9.9,
1313,1661605310286,-0.9346,-0.6478,-0.2649,-25.45,-5.21,-9.88,
1314,1661605310286,-1.0024,-0.6082,0.0817,-25.16,-16.05,-13.64,
1315,1661605310286,-1.1592,-0.5809,0.0783,-26.58,-23.06,-7.06,
1316,1661605310286,-1.1836,-0.8831,-0.344,-33.64,-21.95,-3.95,
1317,1661605310286,-1.1621,-0.9539,0.4309,-41.36,-18.0,-3.05,
1318,1661605310286,-1.3418,-0.8319,0.3005,-42.26,-31.53,0.05,
1319,1661605310286,-1.1431,-0.7962,0.1857,-43.86,-21.2,1.96,
1320,1661605310286,-1.3603,-0.8553,0.8942,-48.96,-7.16,2.87,
1321,1661605310286,-1.3008,-0.6092,0.6042,-51.95,-3.03,1.96,
1322,1661605310286,-1.2261,-0.6033,0.2536,-50.75,-12.15,3.06,
1323,1661605310286,-1.1914,-0.451,0.906,-49.56,3.41,5.51,
1324,1661605310286,-1.3418,-0.3323,0.7639,-52.84,3.59,3.62,
1325,1661605310286,-1.2187,-0.1966,-0.0608,-51.45,-2.43,4.34,
1326,1661605310286,-1.3125,-0.2625,0.5676,-50.38,5.01,7.44,
1327,1661605310286,-1.3032,-0.0667,0.9401,-49.27,1.12,7.34,
1328,1661605310286,-1.2046,-0.0169,0.0539,-49.77,-1.34,8.81,
1329,1661605310286,-1.1074,0.0168,0.9396,-52.24,19.31,10.53,
1330,1661605310286,-1.2612,0.1208,1.093,-53.26,24.8,10.08,
1331,1661605310286,-1.227,0.2814,0.3171,-47.25,19.31,10.63,
1332,1661605310286,-1.1836,0.4494,0.6364,-44.06,27.34,8.9,
1333,1661605310286,-1.1719,0.4147,0.9226,-41.54,25.9,12.46,
1334,1661605310286,-1.1328,0.4108,0.0275,-40.55,20.84,8.17,
1335,1661605310286,-1.0556,0.5407,0.3425,-35.85,30.46,8.72,
1336,1661605310286,-1.0088,0.4396,0.4113,-34.65,31.82,8.53,
1337,1661605310286,-1.0058,0.4748,0.0837,-33.26,20.48,8.44,
1338,1661605310286,-0.937,0.6608,-0.1307,-30.85,18.04,9.98,
1339,1661605310302,-0.875,0.5353,0.2233,-25.55,21.51,9.98,
1340,1661605310302,-1.0454,0.5456,-0.1746,-23.07,20.24,14.73,
1341,1661605310302,-0.8179,0.7892,-0.073,-24.36,25.9,8.44,
1342,1661605310302,-0.8511,0.7551,0.2399,-17.86,27.43,8.63,
1343,1661605310302,-0.9468,0.6642,0.0114,-13.76,24.8,8.53,
1344,1661605310302,-0.8657,0.7287,-0.576,-12.16,22.61,5.42,
1345,1661605310302,-0.6118,0.9494,-0.2698,-9.67,30.46,7.71,
1346,1661605310302,-0.668,0.7126,-0.7039,-5.37,22.35,4.89,
1347,1661605310302,-0.6821,0.8,-0.7166,-5.98,26.4,3.24,
1348,1661605310302,-0.5708,1.0514,-0.4891,-5.87,16.01,6.34,
1349,1661605310302,-0.7036,1.007,-0.5657,-6.17,8.06,3.06,
1350,1661605310302,-0.7305,0.6442,-0.7063,-1.55,-0.39,7.91,
1351,1661605310302,-0.709,0.6984,-0.4236,-2.68,5.27,6.15,
1352,1661605310302,-0.6675,0.923,-0.0633,-5.88,1.38,0.05,
1353,1661605310302,-0.7197,0.5998,-0.7254,-4.77,-6.33,-2.7,
1354,1661605310302,-0.6343,0.4797,-0.4671,-3.08,3.65,-8.16,
1355,1661605310302,-0.6147,0.5837,-0.1043,-2.67,6.78,-10.71,
1356,1661605310302,-0.7241,0.4728,-0.7415,2.63,-1.24,-10.62,
1357,1661605310302,-0.7832,0.0456,-0.7659,0.31,-6.83,-9.26,
1358,1661605310302,-0.7851,0.0031,-0.3816,-2.88,-11.39,-10.98,
1359,1661605310302,-0.9546,-0.1131,-0.8641,-8.17,-38.72,-7.98,
1360,1661605310302,-0.9365,-0.5086,-0.4231,-4.98,-30.68,-4.97,
1361,1661605310302,-1.0591,-0.5306,0.0461,-15.07,-23.83,-5.61,
1362,1661605310302,-0.8696,-0.3289,-0.3372,-21.05,-27.55,-6.53,
1363,1661605310302,-1.0806,-0.6619,0.1379,-20.66,-28.57,-6.88,
1364,1661605310302,-1.1592,-0.8719,0.4187,-21.86,-9.29,-5.61,
1365,1661605310302,-1.081,-0.4266,-0.3436,-29.49,-17.74,-5.7,
1366,1661605310302,-1.0464,-0.5711,0.257,-30.95,-13.59,-8.07,
1367,1661605310302,-1.2397,-0.7777,0.1462,-30.86,-16.64,-6.43,
1368,1661605310302,-1.0171,-0.6282,-0.3406,-36.25,-23.16,-1.69,
1369,1661605310302,-1.0,-0.3944,-0.2684,-40.64,-15.45,-5.88,
1370,1661605310302,-1.1982,-0.6805,0.5783,-40.64,-20.44,-1.96,
1371,1661605310302,-1.1953,-0.5325,-0.0491,-47.75,-25.86,-6.07,
1372,1661605310318,-1.2016,-0.2088,0.4284,-47.34,-1.34,-3.05,
1373,1661605310318,-1.4145,-0.4608,0.9416,-47.54,7.04,2.6,
1374,1661605310318,-1.3398,-0.5106,0.4763,-48.44,6.71,-1.69,
1375,1661605310318,-1.3198,-0.0794,0.8806,-49.97,9.83,-1.41,
1376,1661605310318,-1.3022,-0.3079,0.6945,-47.77,1.62,2.6,
1377,1661605310318,-1.2959,-0.5555,0.2282,-47.05,4.68,4.34,
1378,1661605310318,-1.2632,-0.1361,0.802,-51.84,19.05,0.23,
1379,1661605310318,-1.291,-0.1351,0.6779,-51.97,8.4,-0.68,
1380,1661605310318,-1.3872,-0.5071,0.1682,-46.85,0.28,6.61,
1381,1661605310318,-1.1572,-0.4227,0.5637,-50.65,2.22,7.53,
1382,1661605310318,-1.2114,-0.0784,0.6403,-54.85,2.31,9.8,
1383,1661605310318,-1.2905,-0.119,0.278,-54.07,0.53,9.53,
1384,1661605310318,-1.2358,-0.0931,0.9338,-52.04,17.69,12.9,
1385,1661605310318,-1.3423,0.1594,1.0969,-49.85,25.06,11.36,
1386,1661605310318,-1.2031,0.4953,0.4377,-46.05,22.68,14.18,
1387,1661605310318,-1.0386,0.3171,0.1994,-39.65,23.28,14.36,
1388,1661605310318,-0.8574,0.6188,0.5852,-35.35,31.49,12.18,
1389,1661605310318,-0.8662,0.862,-0.2708,-32.76,19.14,16.1,
1390,1661605310318,-0.9878,0.7585,-0.2352,-29.46,18.62,15.19,
1391,1661605310318,-0.8994,0.6838,0.3781,-27.67,35.88,16.38,
1392,1661605310318,-0.7925,1.0812,-0.5276,-20.38,25.64,12.9,
1393,1661605310318,-0.8257,0.9421,-0.1063,-21.97,29.46,12.55,
1394,1661605310318,-0.8257,0.9347,0.3996,-17.28,24.71,13.45,
1395,1661605310318,-0.7729,0.8947,-0.2273,-14.15,32.84,12.64,
1396,1661605310318,-0.5913,1.0309,-0.5105,-9.58,42.49,8.98,
1397,1661605310318,-0.707,0.9172,0.0056,-10.77,39.94,7.16,
1398,1661605310318,-0.7187,0.6989,-0.5252,-10.68,24.97,4.61,
1399,1661605310318,-0.7539,0.8161,-0.8206,-7.67,6.87,3.06,
1400,1661605310318,-0.7261,0.6735,-0.2972,-3.08,5.52,1.13,
1401,1661605310332,-0.7588,0.5685,-0.3855,5.64,5.44,2.14,
1402,1661605310332,-0.7534,0.5197,-0.7176,1.23,4.25,-1.78,
1403,1661605310332,-0.5737,0.5744,-0.4749,-8.59,4.17,-2.77,
1404,1661605310332,-0.7768,0.3698,-0.4622,-10.68,-3.37,-5.24,
1405,1661605310336,-0.6992,0.2477,-0.6038,-3.18,-10.63,-0.22,
1406,1661605310336,-0.7617,0.3068,-0.4275,-2.47,-5.23,-1.51,
1407,1661605310336,-0.6382,0.4528,-0.3396,-3.26,-4.63,-0.86,
1408,1661605310336,-0.8179,0.2673,-0.5594,-7.17,-9.45,-4.33,
1409,1661605310336,-0.7344,0.237,-0.6517,-3.26,-19.1,-8.43,
1410,1661605310336,-0.7392,0.2072,-0.5315,-3.17,-25.95,-6.25,
1411,1661605310336,-0.918,-0.0628,-0.3714,-4.59,-18.93,-3.41,
1412,1661605310336,-0.8066,-0.0731,-0.7698,-13.96,-25.52,0.33,
1413,1661605310336,-0.8857,-0.0408,0.174,-18.95,-10.87,-9.15,
1414,1661605310336,-0.9482,-0.2186,-0.2552,-15.85,-24.58,-8.88,
1415,1661605310336,-0.8979,-0.4412,-0.3709,-20.44,-12.4,-8.33,
1416,1661605310336,-0.9707,-0.2332,0.6003,-28.16,-1.17,-17.28,
1417,1661605310336,-1.0415,-0.3582,-0.429,-26.45,-22.82,-10.17,
1418,1661605310336,-1.0459,-0.5745,0.1882,-27.08,-14.52,-11.53,
1419,1661605310336,-1.1968,-0.5155,0.4587,-31.67,-7.67,-5.98,
1420,1661605310336,-1.1489,-0.6219,-0.3865,-32.83,-15.6,-3.76,
1421,1661605310336,-1.1494,-0.7899,0.2883,-35.35,-16.21,-7.79,
1422,1661605310336,-1.3564,-0.804,0.5314,-36.37,-15.8,-1.23,
1423,1661605310336,-1.2793,-0.8109,-0.1863,-45.56,-22.56,-5.52,
1424,1661605310336,-1.3154,-0.8363,0.9279,-47.86,-7.26,2.14,
1425,1661605310336,-1.4399,-0.8826,1.0661,-49.46,-7.5,1.68,
1426,1661605310336,-1.2016,-0.6566,0.0646,-49.46,-14.95,3.88,
1427,1661605310336,-1.2578,-0.6546,0.5324,-52.36,-1.0,3.97,
1428,1661605310336,-1.2851,-0.5775,1.03,-52.04,0.53,5.79,
1429,1661605310336,-1.164,-0.2816,-0.0765,-55.35,-9.88,7.8,
1430,1661605310336,-1.2104,-0.2767,0.6564,-51.07,2.72,7.99,
1431,1661605310336,-1.333,-0.2088,0.8811,-53.14,9.24,8.44,
1432,1661605310336,-1.3569,-0.0369,0.2419,-50.36,1.88,8.98,
1433,1661605310336,-1.2837,-0.0335,0.3469,-53.45,17.36,12.99,
1434,1661605310336,-1.27,0.1594,1.2048,-55.26,9.41,8.98,
1435,1661605310336,-1.2153,0.2267,0.0422,-52.74,5.68,13.63,
1436,1661605310336,-1.1201,0.4094,0.5876,-49.14,27.26,11.08,
1437,1661605310336,-1.1431,0.4977,1.0314,-45.63,36.49,10.73,
1438,1661605310336,-1.022,0.4782,-0.0682,-42.96,23.54,15.37,
1439,1661605310336,-1.0586,0.6247,0.0637,-38.95,31.15,10.99,
1440,1661605310336,-1.1152,0.7941,0.7805,-30.37,26.16,10.44,
1441,1661605310336,-1.0635,0.5016,-0.1346,-29.66,24.21,11.08,
1442,1661605310336,-0.9765,0.7243,0.1037,-29.98,27.5,10.63,
1443,1661605310336,-0.9639,0.6554,0.4699,-28.07,36.81,15.0,
1444,1661605310336,-0.9306,0.5324,-0.7674,-21.66,24.21,14.73,
1445,1661605310351,-0.6377,0.6896,-0.6971,-20.18,37.15,14.0,
1446,1661605310351,-0.7993,0.6984,-0.1092,-20.46,33.09,16.1,
1447,1661605310351,-0.8691,0.6457,-0.7435,-17.36,23.61,9.89,
1448,1661605310351,-0.7724,0.6633,-0.8255,-11.96,15.08,9.43,
1449,1661605310351,-0.7602,0.7668,-0.1951,-10.26,13.05,7.8,
1450,1661605310351,-0.8037,0.7297,-0.0853,-12.78,1.46,7.16,
1451,1661605310351,-0.7886,0.6711,-0.6282,-6.68,-6.33,3.7,
1452,1661605310351,-0.6806,0.8571,-0.0315,-7.27,13.22,3.88,
1453,1661605310351,-0.8589,0.8346,-0.0228,-6.28,21.58,5.15,
1454,1661605310351,-0.605,0.7707,-0.4949,-7.36,16.94,6.34,
1455,1661605310351,-0.5991,0.6677,-0.4134,-3.18,26.07,4.25,
1456,1661605310358,-0.7549,0.7878,-0.0281,-5.67,3.99,2.78,
1457,1661605310358,-0.6494,0.6501,-1.5359,-6.77,-30.01,-1.32,
1458,1661605310358,-0.706,0.6125,-0.2205,-6.88,-11.06,-4.69,
1459,1661605310358,-0.7324,0.5632,-0.5911,0.72,-4.97,-5.43,
1460,1661605310358,-0.7226,0.4679,-1.3279,0.02,-14.95,-3.5,
1461,1661605310358,-0.6572,0.4255,-0.4563,-5.06,-5.9,-6.69,
1462,1661605310358,-0.8545,0.2077,0.2756,-5.26,-16.21,-6.97,
1463,1661605310358,-0.8223,-0.1761,-0.826,-7.96,-25.86,-7.61,
1464,1661605310358,-0.9292,-0.2586,0.1237,-11.56,-1.93,-11.16,
1465,1661605310358,-1.104,-0.3543,0.3269,-13.36,-4.3,-10.45,
1466,1661605310358,-0.9853,-0.4783,-0.761,-16.66,-18.0,-9.62,
1467,1661605310358,-1.0356,-0.5794,0.1853,-19.16,-14.44,-8.8,
1468,1661605310358,-1.0713,-0.7816,-0.0735,-21.57,-17.91,-3.69,
1469,1661605310358,-0.9521,-0.5877,-0.7039,-27.77,-30.08,-7.15,
1470,1661605310358,-1.0942,-0.6746,0.3288,-32.56,-24.09,-4.51,
1471,1661605310358,-1.2441,-0.7679,0.0783,-37.65,-29.32,-5.43,
1472,1661605310358,-1.1074,-0.659,-0.1888,-35.75,-18.33,-5.24,
1473,1661605310358,-1.1821,-0.5433,0.4768,-38.86,-18.41,-5.88,
1474,1661605310358,-1.2261,-0.6424,0.3347,-43.65,-13.94,-2.7,
1475,1661605310358,-1.1806,-0.5696,-0.0496,-43.77,-19.17,-0.04,
1476,1661605310358,-1.1938,-0.2806,0.986,-49.77,14.23,0.14,
1477,1661605310358,-1.2471,-0.4261,0.173,-52.26,-9.29,2.05,
1478,1661605310358,-1.3266,-0.452,-0.2259,-52.76,-12.32,1.96,
1479,1661605310358,-1.2734,-0.199,0.7502,-47.66,4.75,5.42,
1480,1661605310358,-1.3887,-0.1107,0.6696,-47.27,-5.39,3.51,
1481,1661605310358,-1.3642,-0.3607,0.1193,-49.54,-3.03,4.52,
1482,1661605310358,-1.2515,-0.1444,1.2165,-53.16,7.71,4.98,
1483,1661605310358,-1.2905,-0.242,0.5954,-50.67,-0.91,9.07,
1484,1661605310358,-1.2505,-0.348,0.4201,-48.85,8.4,10.08,
1485,1661605310358,-1.1924,-0.1986,1.1345,-49.34,22.51,10.81,
1486,1661605310358,-1.3003,-0.1282,0.8439,-52.35,16.52,12.46,
1487,1661605310358,-1.2324,-0.0071,0.0637,-49.85,7.88,13.63,
1488,1661605310358,-1.166,-0.0775,0.6882,-48.55,21.67,14.73,
1489,1661605310358,-1.1562,0.1847,0.5002,-50.24,12.63,11.27,
1490,1661605310358,-1.1723,0.3815,-0.0486,-48.04,10.0,13.91,
1491,1661605310374,-1.0903,0.2609,0.6125,-36.86,26.5,14.73,
1492,1661605310374,-1.0766,0.5866,0.3942,-35.07,27.09,16.82,
1493,1661605310374,-1.0942,0.7878,-0.115,-31.75,18.38,13.91,
1494,1661605310374,-0.7329,0.6764,0.2526,-30.36,30.65,16.29,
1495,1661605310374,-1.1025,0.654,0.1252,-28.85,37.24,12.55,
1496,1661605310374,-0.854,0.8664,-0.6082,-23.37,48.82,13.63,
1497,1661605310374,-0.7441,1.0036,-0.6336,-17.36,44.33,11.72,
1498,1661605310374,-0.8188,0.923,0.1833,-19.46,29.72,13.36,
1499,1661605310374,-0.7392,0.9225,-1.0096,-16.08,-3.61,10.08,
1500,1661605310374,-0.8096,1.0148,-0.4031,-14.35,17.13,12.38,
1501,1661605310374,-0.831,0.905,0.1384,-10.28,21.08,10.81,
1502,1661605310374,-0.668,0.8141,-0.66,-13.76,10.26,6.61,
1503,1661605310374,-0.7153,1.0178,-0.0931,-10.46,12.87,1.23,
1504,1661605310374,-0.7446,0.926,0.1672,-1.38,17.45,1.5,
1505,1661605310374,-0.8115,0.5519,-0.2991,1.13,11.6,4.16,
1506,1661605310374,-0.689,0.6423,-0.5848,0.42,17.87,-1.78,
1507,1661605310374,-0.7163,0.5812,-0.4002,-5.56,7.3,-2.33,
1508,1661605310374,-0.7212,0.3034,-1.0584,-6.97,-6.23,-9.07,
1509,1661605310374,-0.6694,0.3356,-1.0037,-4.27,-16.05,-5.06,
1510,1661605310374,-0.8027,0.3493,-0.6224,-3.49,-16.9,-8.71,
1511,1661605310374,-0.5669,0.3014,-0.7918,-3.49,-20.2,-4.33,
1512,1661605310374,-0.8218,0.0261,-0.576,-4.25,-24.58,-7.41,
1513,1661605310374,-0.9028,0.0988,0.0026,-7.06,-26.96,-3.96,
1514,1661605310374,-0.8828,0.0563,-0.4451,-10.77,-27.12,-9.07,
1515,1661605310374,-0.8457,-0.1878,0.0227,-11.27,-2.94,-1.69,
1516,1661605310374,-0.9736,-0.096,0.0749,-14.08,-3.61,-4.79,
1517,1661605310374,-0.8711,-0.0858,-0.6502,-16.95,-22.29,-6.24,
1518,1661605310374,-1.0312,-0.2904,-0.0262,-16.67,-7.76,-11.9,
1519,1661605310374,-1.0532,-0.2366,-0.1551,-20.96,-7.59,-4.51,
1520,1661605310374,-1.001,-0.3655,-0.8265,-28.04,-23.05,-8.51,
1521,1661605310374,-1.0703,-0.4066,0.2385,-28.45,-21.37,-5.15,
1522,1661605310374,-1.0669,-0.4871,0.0363,-33.75,-24.33,-6.79,
1523,1661605310374,-1.0723,-0.4818,-0.0643,-36.36,-19.17,-8.89,
1524,1661605310374,-1.1816,-0.5653,0.7307,-34.77,-5.64,-4.88,
1525,1661605310389,-1.2871,-0.6546,0.4001,-42.17,-13.25,-9.53,
1526,1661605310389,-1.2524,-0.5848,0.2932,-43.97,-9.36,-10.54,
1527,1661605310389,-1.314,-0.6038,0.6662,-44.55,4.75,-5.88,
1528,1661605310389,-1.4111,-0.7889,0.6149,-44.35,-7.16,-6.88,
1529,1661605310389,-1.3545,-0.6649,0.0471,-47.95,-15.21,-4.15,
1530,1661605310389,-1.2983,-0.6209,0.5588,-50.55,-11.82,-0.13,
1531,1661605310389,-1.333,-0.7469,0.465,-49.36,-8.86,1.77,
1532,1661605310389,-1.3603,-0.5335,0.2795,-53.64,-11.82,5.06,
1533,1661605310389,-1.3945,-0.409,0.8742,-60.36,-5.47,8.26,
1534,1661605310389,-1.206,-0.3323,0.7014,-56.35,-5.39,9.8,
1535,1661605310389,-1.1431,-0.2196,0.5017,-53.66,6.03,10.9,
1536,1661605310389,-1.2593,-0.0169,0.8068,-52.45,17.69,11.27,
1537,1661605310389,-1.3335,-0.0028,0.8381,-51.05,21.0,13.63,
1538,1661605310389,-1.2788,0.1647,0.633,-52.26,21.58,14.55,
1539,1661605310389,-1.1636,0.3566,0.4235,-49.27,21.17,16.65,
1540,1661605310389,-1.1582,0.5065,0.4338,-48.44,22.01,13.91,
1541,1661605310389,-1.164,0.5265,0.1623,-42.77,22.01,13.63,
1542,1661605310389,-1.0654,0.6008,0.2653,-38.55,34.52,13.72,
1543,1661605310389,-0.9878,0.7394,0.0812,-37.55,39.69,12.36,
1544,1661605310389,-0.9263,0.7033,-0.3025,-36.25,33.61,9.98,
1545,1661605310389,-0.9136,0.7365,-0.1219,-33.55,37.07,10.35,
1546,1661605310389,-0.874,0.7199,0.0266,-26.45,31.56,6.61,
1547,1661605310389,-0.9116,0.6364,-0.3934,-18.27,25.4,7.25,
1548,1661605310389,-0.8906,0.7072,-0.1946,-20.58,20.41,10.99,
1549,1661605310389,-0.8506,0.7526,0.0954,-19.95,13.63,10.17,
1550,1661605310389,-0.9053,0.6232,-0.3025,-18.17,6.87,8.35,
1551,1661605310389,-0.7744,0.6755,-0.1746,-16.37,10.34,9.98,
1552,1661605310389,-0.8032,0.6603,0.0632,-12.08,14.23,6.61,
1553,1661605310389,-0.73,0.6276,0.0446,-9.38,17.95,8.72,
1554,1661605310389,-0.8384,0.7092,-0.3548,-8.39,10.6,10.26,
1555,1661605310389,-0.7192,0.6413,-0.3992,-8.77,10.6,5.88,
1556,1661605310389,-0.8003,0.6506,-0.3426,-5.96,1.88,7.34,
1557,1661605310405,-0.6382,0.7795,-0.5672,-4.08,9.74,4.61,
1558,1661605310405,-0.5337,0.8298,-0.7874,-1.37,-9.62,3.06,
1559,1661605310405,-0.5517,0.6335,-0.8377,-5.56,-10.55,3.97,
1560,1661605310405,-0.6636,0.6496,-0.5408,-1.98,-12.08,0.23,
1561,1661605310405,-0.6777,0.5856,-0.7493,2.13,1.55,2.87,
1562,1661605310405,-0.7676,0.6286,0.1394,-4.68,15.33,-3.87,
1563,1661605310405,-0.7856,0.5344,-0.0091,-9.36,-9.12,-2.51,
1564,1661605310405,-0.6431,0.2585,-0.5418,-9.35,-16.46,-9.06,
1565,1661605310405,-0.6977,0.3639,-0.1575,-0.09,1.12,-6.07,
1566,1661605310405,-0.8501,0.172,-0.2742,-5.17,5.77,-6.79,
1567,1661605310405,-0.8008,0.05,-0.7454,-7.35,-2.08,-6.14,
1568,1661605310405,-0.8291,-0.0369,-0.0667,-13.86,-0.65,-9.9,
1569,1661605310405,-0.9853,-0.4456,-0.6658,-9.58,-27.81,-3.96,
1570,1661605310405,-0.9346,-0.4945,-0.4759,-13.97,-26.19,-3.78,
1571,1661605310405,-1.1518,-0.6141,0.2243,-19.88,-18.33,-11.16,
1572,1661605310405,-1.0669,-0.7269,-0.2503,-24.45,-26.19,-8.25,
1573,1661605310405,-1.1704,-0.7928,-0.0525,-28.96,-31.95,-8.98,
1574,1661605310405,-1.1055,-0.7596,0.5593,-36.86,-15.97,-8.89,
1575,1661605310405,-1.2729,-0.7933,0.0583,-38.95,-20.96,-7.06,
1576,1661605310405,-1.2236,-0.7606,0.2624,-41.65,-14.35,0.51,
1577,1661605310405,-1.0845,-0.639,0.321,-44.26,-19.94,-1.41,
1578,1661605310405,-1.1474,-0.6204,0.0178,-48.04,-25.95,-6.34,
1579,1661605310405,-1.2973,-0.6453,0.1252,-43.25,-25.09,-3.41,
1580,1661605310405,-1.2563,-0.5028,0.2521,-47.07,-15.28,1.06,
1581,1661605310405,-1.2895,-0.4705,0.3786,-52.73,-8.0,4.81,
1582,1661605310405,-1.2759,-0.4451,0.6569,-56.15,-6.16,4.43,
1583,1661605310405,-1.2265,-0.2874,0.4597,-53.35,-8.78,0.6,
1584,1661605310405,-1.3159,-0.1986,0.7268,-51.97,-1.5,-0.59,
1585,1661605310405,-1.4004,-0.1961,0.905,-54.96,6.61,-0.59,
1586,1661605310405,-1.2588,-0.1014,0.8146,-55.95,17.45,1.77,
1587,1661605310405,-1.2969,-0.0965,0.6472,-54.25,12.53,0.97,
1588,1661605310405,-1.3017,-0.0921,0.527,-49.46,18.29,3.79,
1589,1661605310405,-1.2226,-0.0789,0.6086,-48.35,15.25,4.89,
1590,1661605310405,-1.2222,0.0358,0.5178,-48.94,16.52,7.07,
1591,1661605310420,-1.2324,0.0314,0.3947,-48.96,17.36,10.63,
1592,1661605310420,-1.2456,-0.0115,0.427,-49.86,27.69,15.28,
1593,1661605310420,-1.0332,0.1647,0.0612,-46.14,29.98,16.03,
1594,1661605310420,-1.0654,0.32,-0.2381,-44.87,32.42,13.72,
1595,1661605310420,-1.1128,0.3429,-0.1414,-43.86,28.69,16.73,
1596,1661605310420,-0.8887,0.4113,0.2224,-39.45,28.6,17.28,
1597,1661605310420,-0.8696,0.6496,-0.0564,-32.56,18.62,16.1,
1598,1661605310420,-0.9834,0.6701,-0.2361,-27.06,7.21,19.02,
1599,1661605310420,-1.0571,0.6135,0.2072,-26.58,7.71,19.57,
1600,1661605310420,-0.8393,0.8522,0.2341,-28.97,6.87,15.92,
1601,1661605310420,-0.5742,0.8722,-0.098,-19.66,17.87,16.19,
1602,1661605310420,-0.7099,0.9294,0.1481,-11.29,31.06,16.19,
1603,1661605310420,-0.8379,0.821,0.1579,-16.06,45.02,15.83,
1604,1661605310420,-0.8149,1.0178,0.0476,-19.86,21.58,10.26,
1605,1661605310420,-0.7471,0.9894,-0.5364,-15.47,6.45,10.99,
1606,1661605310420,-0.5932,0.8825,-0.2601,-8.86,8.06,7.53,
1607,1661605310420,-0.6142,1.0944,-0.6351,-3.76,6.78,5.15,
1608,1661605310420,-0.5527,0.9655,-0.8582,-1.89,6.54,2.78,
1609,1661605310420,-0.6572,0.8688,-0.5481,1.82,13.13,1.23,
1610,1661605310420,-0.7095,0.7814,-0.1336,2.03,8.9,0.78,
1611,1661605310420,-0.7275,0.5881,-0.6438,0.23,1.79,-2.96,
1612,1661605310420,-0.6645,0.4709,-0.4437,-2.38,4.08,-6.43,
1613,1661605310420,-0.7168,0.4201,-0.2171,-3.06,6.45,-3.96,
1614,1661605310420,-0.8154,0.2653,-0.4651,-3.69,3.24,-3.78,
1615,1661605310420,-0.6992,0.3488,-0.6966,-1.76,4.58,-7.24,
1616,1661605310420,-0.8091,0.0295,-0.3958,-2.18,-0.91,0.23,
1617,1661605310420,-0.7275,-0.074,-0.6482,-4.76,-13.67,-3.76,
1618,1661605310420,-0.8027,0.1198,-0.6492,-8.78,-26.28,-6.53,
1619,1661605310420,-0.897,-0.2137,-0.2547,-8.75,-20.01,-10.25,
1620,1661605310420,-0.8667,-0.284,-0.3582,-15.28,-24.16,-11.71,
1621,1661605310420,-0.8467,-0.0731,-0.1639,-13.16,-19.86,-8.98,
1622,1661605310420,-0.9785,-0.3885,-0.0262,-14.98,-14.78,-6.53,
1623,1661605310420,-1.0361,-0.5164,-0.0975,-23.48,-10.55,-5.43,
1624,1661605310436,-1.0332,-0.2982,-0.0789,-28.45,-19.51,-8.34,
1625,1661605310436,-0.9805,-0.3895,-0.115,-31.57,-18.17,-9.53,
1626,1661605310436,-1.0522,-0.5516,-0.1399,-37.97,-18.17,-8.43,
1627,1661605310436,-1.0503,-0.4075,-0.0271,-35.65,-20.62,-6.69,
1628,1661605310436,-1.0806,-0.3563,0.0886,-31.15,-27.21,-4.97,
1629,1661605310436,-1.227,-0.6199,0.3088,-37.55,-22.82,-9.71,
1630,1661605310436,-1.1733,-0.4569,0.4777,-44.96,-19.86,-8.34,
1631,1661605310436,-1.2773,-0.5115,0.5939,-43.34,-13.18,-8.07,
1632,1661605310436,-1.4057,-0.846,0.6052,-44.55,-8.78,-4.88,
1633,1661605310436,-1.3423,-0.8021,0.6223,-45.85,-0.74,-2.05,
1634,1661605310436,-1.2363,-0.5848,0.5876,-49.45,1.96,0.23,
1635,1661605310436,-1.3398,-0.6663,0.3127,-51.94,1.9,2.06,
1636,1661605310436,-1.3096,-0.7537,0.2614,-54.15,1.12,-0.41,
1637,1661605310436,-1.3774,-0.4813,0.3981,-57.44,0.53,3.42,
1638,1661605310436,-1.272,-0.2645,0.3366,-58.85,0.28,7.07,
1639,1661605310436,-1.313,-0.367,0.277,-54.15,-2.01,8.44,
1640,1661605310436,-1.3408,-0.3426,0.5183,-54.45,0.53,9.16,
1641,1661605310436,-1.3203,0.0549,0.6423,-54.76,1.79,11.54,
1642,1661605310436,-1.3047,0.071,0.5656,-50.55,8.81,12.9,
1643,1661605310436,-1.3418,0.0895,0.8479,-49.05,22.1,14.91,
1644,1661605310436,-1.1308,0.4123,0.7326,-52.35,25.64,11.82,
1645,1661605310436,-1.0923,0.5812,0.3283,-47.56,26.5,10.9,
1646,1661605310436,-1.102,0.4528,0.2937,-39.97,30.05,9.25,
1647,1661605310436,-1.0224,0.6091,0.2956,-35.85,24.8,9.34,
1648,1661605310436,-0.9961,0.8371,0.0544,-37.06,23.11,8.72,
1649,1661605310436,-1.0127,0.7389,0.1081,-34.19,24.3,8.63,
1650,1661605310436,-0.9927,0.6906,-0.0574,-29.87,26.4,12.09,
1651,1661605310436,-0.8755,0.8298,-0.1897,-27.67,24.38,8.26,
1652,1661605310436,-0.8159,0.8439,-0.1839,-22.17,20.58,8.81,
1653,1661605310436,-0.8613,0.6882,-0.0198,-18.46,25.82,7.62,
1654,1661605310436,-0.8833,0.6935,-0.1561,-18.67,26.4,6.98,
1655,1661605310436,-0.853,0.8093,-0.139,-15.48,31.15,3.61,
1656,1661605310436,-0.8413,0.6237,-0.1307,-14.46,21.75,6.34,
1657,1661605310452,-0.6821,0.6247,-0.3504,-15.77,13.47,6.8,
1658,1661605310452,-0.6973,0.82,-0.408,-11.29,10.6,5.24,
1659,1661605310452,-0.7866,0.6545,-0.5906,-5.67,9.67,6.7,
1660,1661605310452,-0.7334,0.5446,-0.4891,-3.67,7.97,2.32,
1661,1661605310452,-0.8056,0.5998,-0.223,-4.77,2.72,5.7,
1662,1661605310452,-0.581,0.7419,-0.2029,-6.6,3.15,2.97,
1663,1661605310452,-0.6904,0.5041,-0.514,-6.28,0.19,9.71,
1664,1661605310452,-0.6098,0.5431,-0.5633,-4.47,4.08,2.14,
1665,1661605310452,-0.5727,0.6262,-0.512,-4.37,-2.27,1.06,
1666,1661605310452,-0.7568,0.5759,-0.5569,-5.17,-10.13,-0.22,
1667,1661605310452,-0.6973,0.4748,-0.6067,-4.59,-8.52,-6.07,
1668,1661605310452,-0.6919,0.4001,-0.3372,-4.48,3.91,-5.34,
1669,1661605310452,-0.6543,0.384,-0.6307,-8.57,-5.3,-6.43,
1670,1661605310452,-0.7026,0.1169,-0.7249,-10.25,-16.88,-8.05,
1671,1661605310452,-0.7915,0.1047,-0.2693,-10.08,-12.84,-7.06,
1672,1661605310452,-0.8608,0.2009,-0.2449,-7.88,-21.55,-11.53,
1673,1661605310452,-0.8926,-0.0989,-0.4178,-11.26,-11.9,-14.17,
1674,1661605310452,-0.9868,-0.3226,0.0949,-19.68,-10.13,-11.71,
1675,1661605310452,-0.9917,-0.4119,-0.0599,-18.37,-18.59,-9.71,
1676,1661605310452,-0.9922,-0.5296,-0.2088,-20.08,-14.44,-8.62,
1677,1661605310452,-1.0166,-0.6468,0.216,-27.75,-16.38,-11.44,
1678,1661605310452,-1.1816,-0.7415,-0.1468,-27.87,-29.67,-7.52,
1679,1661605310452,-1.0683,-0.743,-0.0071,-35.35,-21.46,-10.62,
1680,1661605310452,-1.2988,-0.8651,0.3112,-41.54,-18.84,-4.33,
1681,1661605310452,-1.1401,-0.7044,-0.0433,-42.46,-23.49,-0.5,
1682,1661605310452,-1.2056,-0.7376,0.1853,-45.76,-17.4,2.05,
1683,1661605310452,-1.1352,-0.7777,0.5104,-48.44,-16.14,-0.22,
1684,1661605310452,-1.2036,-0.554,0.1496,-54.35,-11.91,-3.14,
1685,1661605310452,-1.2124,-0.4901,0.4104,-55.05,-10.81,1.87,
1686,1661605310452,-1.3418,-0.5213,0.5573,-50.26,-3.2,-1.23,
1687,1661605310452,-1.3848,-0.2855,0.467,-51.07,3.99,3.15,
1688,1661605310452,-1.3686,-0.1361,0.4372,-52.94,-0.07,-2.24,
1689,1661605310452,-1.3584,-0.1395,0.7736,-51.34,5.01,-0.86,
1690,1661605310467,-1.31,-0.1175,0.5695,-50.17,6.28,1.41,
1691,1661605310467,-1.2827,-0.0594,0.5363,-51.05,14.66,1.32,
1692,1661605310467,-1.2226,-0.0653,0.675,-50.67,25.06,4.7,
1693,1661605310471,-1.2881,-0.0057,0.55,-49.95,16.52,5.15,
1694,1661605310471,-1.1377,0.1022,0.2756,-49.25,21.0,6.8,
1695,1661605310471,-1.1968,0.1071,0.3469,-44.25,25.99,5.6,
1696,1661605310471,-1.2075,0.0436,0.1135,-44.95,22.77,10.35,
1697,1661605310471,-1.0473,0.2775,0.0769,-45.66,14.4,8.81,
1698,1661605310471,-0.9761,0.3527,0.237,-47.85,11.95,10.44,
1699,1661605310471,-1.1431,0.2311,0.152,-39.26,8.57,11.54,
1700,1661605310471,-1.0361,0.3342,0.2209,-36.26,14.23,13.08,
1701,1661605310471,-1.061,0.5807,0.4548,-30.56,15.42,13.72,
1702,1661605310471,-0.9995,0.5895,0.257,-29.87,18.55,13.81,
1703,1661605310471,-1.0,0.5407,0.031,-28.96,15.33,14.09,
1704,1661605310471,-0.8159,0.7765,0.4831,-26.47,29.36,9.25,
1705,1661605310471,-0.7461,0.8591,0.3981,-20.26,21.0,13.36,
1706,1661605310476,-0.7192,0.8044,-0.389,-15.48,25.57,6.7,
1707,1661605310476,-0.8354,0.7775,-0.3489,-8.37,31.99,8.72,
1708,1661605310476,-0.7012,0.8942,-0.2342,-12.66,34.35,2.6,
1709,1661605310476,-0.7441,0.9963,-0.4505,-15.57,5.68,0.14,
1710,1661605310476,-0.7539,0.84,-0.4734,-11.87,0.95,-1.32,
1711,1661605310476,-0.6172,0.964,-0.3655,-1.87,6.03,1.87,
1712,1661605310476,-0.561,0.9352,-0.3675,0.11,20.15,1.41,
1713,1661605310476,-0.7153,0.7951,-0.3572,-0.18,20.74,-0.22,
1714,1661605310476,-0.7314,0.8371,-0.2151,-6.88,18.88,-1.05,
1715,1661605310476,-0.7236,0.7809,-0.2767,-6.77,6.78,-6.69,
1716,1661605310476,-0.728,0.6901,-0.577,-2.48,-1.08,-4.88,
1717,1661605310476,-0.6289,0.444,-0.4236,3.41,2.56,-3.69,
1718,1661605310476,-0.7148,0.4142,-0.5428,3.01,0.95,-2.51,
1719,1661605310476,-0.665,0.4196,-0.7645,0.23,1.03,-8.16,
1720,1661605310476,-0.7261,0.0905,-0.6009,-6.07,-5.9,-10.98,
1721,1661605310476,-0.81,-0.0443,-0.4632,-7.88,-13.85,-11.26,
1722,1661605310476,-0.8047,-0.0159,-0.5892,-6.27,-30.77,-6.69,
1723,1661605310476,-0.9521,-0.2122,-0.1648,-11.18,-20.87,-9.44,
1724,1661605310476,-0.9731,-0.411,-0.0438,-15.57,-16.21,-5.34,
1725,1661605310485,-0.9062,-0.285,-0.2166,-16.26,-21.63,-5.88,
1726,1661605310485,-0.9917,-0.2498,0.0231,-20.18,-18.59,0.69,
1727,1661605310485,-1.1084,-0.6634,0.0026,-24.56,-10.98,-1.41,
1728,1661605310485,-0.9785,-0.4276,-0.3929,-27.74,-26.18,-8.6,
1729,1661605310485,-0.914,-0.3245,0.114,-28.15,-18.91,-5.14,
1730,1661605310485,-1.0796,-0.6488,-0.0306,-31.15,-20.87,-9.07,
1731,1661605310485,-0.9468,-0.5106,-0.3064,-38.17,-22.23,-5.34,
1732,1661605310485,-1.1001,-0.3299,0.2658,-37.36,-21.29,-8.89,
1733,1661605310485,-1.187,-0.3914,0.4895,-44.05,-17.4,-4.42,
1734,1661605310485,-1.2661,-0.6175,0.1301,-45.44,-16.46,-0.39,
1735,1661605310485,-1.2539,-0.3768,0.424,-47.24,3.33,-6.95,
1736,1661605310485,-1.2778,-0.2777,0.5632,-43.67,2.48,-0.22,
1737,1661605310485,-1.2392,-0.6624,0.1828,-42.75,4.84,-1.78,
1738,1661605310485,-1.1836,-0.513,0.4353,-52.16,6.54,-0.5,
1739,1661605310485,-1.2807,-0.3338,0.2951,-50.26,1.62,-3.5,
1740,1661605310485,-1.313,-0.7161,0.1291,-48.26,-1.08,-1.05,
1741,1661605310485,-1.397,-0.6434,0.5393,-52.96,-2.77,0.97,
1742,1661605310485,-1.2803,-0.2845,0.4802,-56.74,-9.19,5.15,
1743,1661605310485,-1.3301,-0.2894,0.382,-56.16,-7.33,6.43,
1744,1661605310485,-1.3652,-0.5179,0.7966,-54.06,1.46,8.44,
1745,1661605310485,-1.2993,-0.1707,0.8298,-57.44,3.91,11.54,
1746,1661605310485,-1.3862,0.1208,0.5397,-56.54,7.8,13.63,
1747,1661605310485,-1.2964,-0.1087,0.7321,-50.24,14.23,12.36,
1748,1661605310485,-1.1108,0.2873,0.6926,-48.17,18.38,15.19,
1749,1661605310485,-1.0068,0.6008,0.0651,-46.44,11.19,12.46,
1750,1661605310485,-1.1435,0.5036,0.0744,-38.46,17.11,12.0,
1751,1661605310485,-1.063,0.4465,0.2409,-36.88,24.71,15.46,
1752,1661605310485,-0.8559,0.8552,-0.0452,-36.36,25.06,14.36,
1753,1661605310485,-0.9722,0.9382,0.0954,-35.65,33.61,7.44,
1754,1661605310485,-0.9897,0.674,0.174,-29.46,19.81,10.72,
1755,1661605310485,-0.9844,0.8478,0.0964,-26.67,17.19,10.26,
1756,1661605310485,-0.7949,1.1828,0.2155,-25.08,26.5,5.7,
1757,1661605310485,-0.8467,0.9445,-0.1692,-12.57,40.27,7.99,
1758,1661605310485,-0.854,0.6467,-0.0462,-13.76,48.58,6.89,
1759,1661605310485,-0.9023,0.9333,-0.0799,-16.67,30.55,8.44,
1760,1661605310485,-0.7041,0.8322,-0.4339,-13.06,18.21,3.61,
1761,1661605310501,-0.793,0.55,-0.4407,-6.37,6.95,6.25,
1762,1661605310501,-0.7236,0.654,-0.3318,-3.78,16.43,1.77,
1763,1661605310501,-0.7461,0.6999,-0.472,-5.49,4.75,6.06,
1764,1661605310501,-0.6792,0.5207,-0.4959,-5.98,11.02,8.98,
1765,1661605310501,-0.791,0.4137,-0.1971,-9.87,-2.01,5.97,
1766,1661605310501,-0.6689,0.674,-0.4021,-5.47,0.02,8.72,
1767,1661605310501,-0.7715,0.5397,-0.2752,-4.66,0.02,3.88,
1768,1661605310501,-0.8545,0.4333,-0.3069,-1.9,7.88,4.06,
1769,1661605310501,-0.3994,0.5763,-0.5452,-2.48,-1.58,3.24,
1770,1661605310501,-0.3891,0.757,-0.5311,-3.98,12.96,0.23,
1771,1661605310501,-0.625,0.5182,-0.7054,0.13,1.96,-0.5,
1772,1661605310501,-0.6841,0.2326,-0.8919,-0.88,-2.27,-2.33,
1773,1661605310501,-0.8354,0.4396,-0.1014,-10.16,-21.2,-5.43,
1774,1661605310501,-0.8266,0.3683,-0.408,-7.26,-39.89,-6.97,
1775,1661605310501,-0.6943,0.0641,-0.8792,-3.35,-16.46,-9.7,
1776,1661605310501,-0.9394,0.0832,0.1203,-11.76,4.92,-12.45,
1777,1661605310501,-0.895,0.0124,-0.2098,-18.18,-15.45,-11.26,
1778,1661605310501,-0.9365,-0.2801,-0.2586,-15.06,-19.01,-8.8,
1779,1661605310501,-0.9844,-0.3099,0.3752,-16.96,-5.56,-14.0,
1780,1661605310501,-0.978,-0.328,-0.3987,-23.37,-3.2,-16.18,
1781,1661605310501,-0.9785,-0.5462,-0.2464,-26.56,-11.65,-8.8,
1782,1661605310501,-1.0908,-0.7103,-0.0071,-23.86,-21.29,-10.54,
1783,1661605310501,-1.0806,-0.6527,-0.3689,-30.95,-24.16,-11.9,
1784,1661605310501,-1.2212,-0.8455,-0.0301,-39.06,-24.51,-6.43,
1785,1661605310501,-1.1504,-0.8509,0.2805,-39.27,-29.92,-10.8,
1786,1661605310501,-1.3232,-0.7757,0.1062,-47.34,-27.81,-2.05,
1787,1661605310501,-1.1904,-0.8216,0.6569,-48.37,-17.83,-0.41,
1788,1661605310501,-1.3906,-0.6937,0.7331,-46.96,-16.64,0.42,
1789,1661605310501,-1.3882,-0.5438,0.5031,-50.36,-11.22,3.7,
1790,1661605310501,-1.2856,-0.5599,0.6267,-52.16,-4.13,2.6,
1791,1661605310501,-1.3506,-0.3797,0.6247,-54.54,-2.27,5.88,
1792,1661605310501,-1.4438,-0.2435,0.259,-52.44,-10.22,2.32,
1793,1661605310501,-1.334,-0.2,0.4655,-48.56,-8.19,7.8,
1794,1661605310516,-1.3257,-0.2855,0.6979,-51.97,8.4,4.98,
1795,1661605310516,-1.289,-0.1165,0.4699,-51.63,1.4,4.9,
1796,1661605310516,-1.2666,-0.0233,0.4221,-54.35,9.83,11.17,
1797,1661605310516,-1.2334,-0.0262,0.9348,-52.45,15.33,10.53,
1798,1661605310516,-1.2554,0.1584,0.4631,-50.87,19.05,8.44,
1799,1661605310516,-1.1396,0.2873,0.4357,-49.07,29.96,9.16,
1800,1661605310516,-1.1709,0.2595,0.5207,-44.64,36.48,7.53,
1801,1661605310516,-1.0967,0.258,0.3273,-40.87,33.26,11.91,
1802,1661605310516,-1.1338,0.3439,-0.033,-39.97,23.87,12.0,
1803,1661605310516,-1.0605,0.4557,0.2443,-38.45,23.54,9.62,
1804,1661605310516,-0.9468,0.2985,0.1267,-35.85,20.07,9.98,
1805,1661605310516,-1.0234,0.4665,-0.0218,-34.63,10.69,10.27,
1806,1661605310516,-0.9429,0.6144,0.2888,-32.85,14.66,10.63,
1807,1661605310516,-1.0181,0.4387,0.2648,-26.06,17.87,15.46,
1808,1661605310516,-1.1074,0.5275,0.1286,-23.26,24.13,12.27,
1809,1661605310516,-0.8701,0.8029,0.2937,-23.36,28.86,11.27,
1810,1661605310516,-0.8223,0.7599,0.1672,-20.06,28.53,13.81,
1811,1661605310516,-0.708,0.6916,-0.4021,-14.08,23.28,14.55,
1812,1661605310516,-0.7397,0.8576,-0.3104,-10.68,24.63,10.99,
1813,1661605310516,-0.6435,0.8879,-0.6102,-8.77,9.74,7.71,
1814,1661605310516,-0.7226,0.652,-0.6277,-8.48,3.99,7.99,
1815,1661605310516,-0.7578,0.7687,-0.408,-5.87,6.95,9.53,
1816,1661605310516,-0.6499,1.0739,-0.4637,-5.98,2.81,5.06,
1817,1661605310516,-0.583,0.8395,-0.6175,-6.97,4.75,6.89,
1818,1661605310516,-0.6894,0.7004,-0.0213,-5.06,11.02,8.26,
1819,1661605310516,-0.6548,0.8405,-0.2605,-7.56,7.04,4.06,
1820,1661605310516,-0.6167,0.9118,-0.4651,-2.97,7.04,0.23,
1821,1661605310516,-0.6606,0.7966,-0.2205,2.61,11.36,-6.16,
1822,1661605310516,-0.7109,0.5197,-0.3743,1.03,6.78,-6.16,
1823,1661605310516,-0.6274,0.5705,-0.8226,-1.47,3.24,-6.53,
1824,1661605310516,-0.7134,0.2985,-0.7034,1.33,-1.41,-7.79,
1825,1661605310516,-0.7866,0.0983,-0.678,2.42,-11.99,-8.98,
1826,1661605310516,-0.8193,-0.0677,-0.7142,-3.49,-16.9,-8.07,
1827,1661605310516,-0.9717,-0.0863,-0.4163,-9.18,-27.05,-9.99,
1828,1661605310516,-0.9863,-0.348,-0.2791,-13.25,-28.47,-5.6,
1829,1661605310532,-1.0332,-0.4827,-0.0994,-15.47,-20.7,-1.69,
1830,1661605310532,-0.9336,-0.3245,0.0891,-20.85,-16.14,-5.98,
1831,1661605310532,-1.0542,-0.4105,0.1047,-22.46,-21.04,-4.15,
1832,1661605310532,-1.0776,-0.7103,0.1149,-25.28,-13.34,-7.7,
1833,1661605310532,-1.0683,-0.3821,-0.0833,-28.86,-20.96,-11.71,
1834,1661605310532,-1.0478,-0.431,-0.158,-26.87,-19.77,-8.52,
1835,1661605310532,-1.1924,-0.7,-0.158,-32.56,-24.09,-1.41,
1836,1661605310532,-1.0815,-0.3597,-0.1541,-37.55,-24.93,-7.79,
1837,1661605310532,-1.1172,-0.3817,0.0949,-41.25,-22.9,-5.15,
1838,1661605310532,-1.1899,-0.6185,0.2033,-42.28,-28.15,-5.06,
1839,1661605310532,-1.2598,-0.4486,0.4431,-48.55,-12.66,-8.34,
1840,1661605310532,-1.2871,-0.2503,0.7976,-47.46,-1.0,-3.78,
1841,1661605310532,-1.3457,-0.5325,0.6086,-46.26,6.45,0.42,
1842,1661605310532,-1.2759,-0.4671,0.8029,-46.64,8.23,-2.15,
1843,1661605310532,-1.27,-0.1707,0.5251,-48.24,9.5,0.69,
1844,1661605310532,-1.3266,-0.2991,0.3493,-50.36,11.86,-0.22,
1845,1661605310532,-1.3408,-0.6082,0.2907,-47.97,16.09,1.32,
1846,1661605310532,-1.2363,-0.3499,0.3317,-53.14,9.33,3.79,
1847,1661605310532,-1.2139,-0.2689,0.0671,-52.44,-4.2,6.98,
1848,1661605310532,-1.2895,-0.5477,0.1945,-48.46,-0.31,12.09,
1849,1661605310532,-1.186,-0.3211,0.4973,-53.84,5.01,10.99,
1850,1661605310532,-1.3442,0.009,0.4826,-57.66,-0.65,11.27,
1851,1661605310532,-1.3403,-0.0262,0.51,-51.75,1.88,13.63,
1852,1661605310532,-1.3618,-0.1405,0.8605,-46.37,11.36,15.28,
1853,1661605310532,-1.1743,0.3425,0.8854,-46.44,24.3,14.46,
1854,1661605310532,-1.1987,0.569,0.4558,-43.86,20.65,14.73,
1855,1661605310532,-1.0898,0.4011,0.4226,-37.06,31.15,18.56,
1856,1661605310532,-1.1055,0.6144,0.0778,-32.05,23.2,20.57,
1857,1661605310532,-0.9941,0.8776,-0.0062,-31.46,31.49,18.93,
1858,1661605310532,-0.9438,0.672,0.0964,-27.55,42.73,17.37,
1859,1661605310532,-0.9468,0.6398,-0.1775,-25.87,23.03,17.37,
1860,1661605310532,-0.7641,0.9616,-0.3572,-28.97,11.19,13.72,
1861,1661605310547,-0.7314,1.0934,0.0895,-20.47,15.66,11.91,
1862,1661605310547,-0.7392,0.7145,-0.3875,-9.38,41.63,8.17,
1863,1661605310547,-0.7524,1.009,0.0476,-11.27,42.99,9.62,
1864,1661605310547,-0.9463,0.9753,-0.0848,-12.66,31.75,6.25,
1865,1661605310547,-0.7534,0.6657,-0.2269,-9.68,10.84,2.42,
1866,1661605310547,-0.8174,0.7038,-0.0916,-4.07,11.02,8.44,
1867,1661605310547,-0.7373,0.7326,-0.1883,-3.17,17.45,3.15,
1868,1661605310547,-0.7549,0.6725,-0.5398,-0.27,15.25,2.6,
1869,1661605310547,-0.7314,0.3937,-0.3909,-4.79,14.06,8.63,
1870,1661605310547,-0.6621,0.5417,-0.4031,-6.98,-5.64,9.8,
1871,1661605310547,-0.7075,0.6081,-0.5325,-5.88,-9.45,8.81,
1872,1661605310547,-0.7783,0.4792,-0.5359,-3.89,-15.37,4.43,
1873,1661605310547,-0.7495,0.3781,-0.3831,-4.08,0.36,7.71,
1874,1661605310547,-0.6548,0.5856,-0.5374,-3.98,-3.78,-0.59,
1875,1661605310547,-0.4399,0.5256,-0.3826,-0.59,11.77,3.42,
1876,1661605310547,-0.7397,0.2643,-0.636,2.72,-14.95,1.23,
1877,1661605310547,-0.7041,0.3234,-0.5008,-7.55,-25.0,-5.23,
1878,1661605310547,-0.8408,0.1257,-0.1409,-9.06,-32.97,-3.32,
1879,1661605310547,-0.9023,0.028,-0.3777,-3.78,-3.2,-1.96,
1880,1661605310547,-0.813,0.0436,-0.7601,-9.67,-6.33,-3.96,
1881,1661605310547,-0.8789,0.0085,0.0993,-17.36,-8.86,-6.53,
1882,1661605310547,-0.8945,-0.1707,-0.261,-13.86,-30.43,-0.77,
1883,1661605310547,-0.9253,-0.411,-0.1605,-17.76,-18.17,-10.62,
1884,1661605310547,-1.0,-0.2254,0.385,-24.64,-6.65,-16.17,
1885,1661605310547,-1.0215,-0.3538,-0.1536,-26.09,-16.38,-15.73,
1886,1661605310547,-1.1201,-0.5887,-0.0545,-23.86,-19.34,-15.36,
1887,1661605310547,-1.1328,-0.5775,0.236,-28.94,-4.69,-8.51,
1888,1661605310547,-1.2436,-0.6883,-0.3997,-33.27,-18.84,-10.26,
1889,1661605310547,-1.1723,-0.7322,0.1345,-37.07,-14.35,-6.69,
1890,1661605310547,-1.3149,-0.8055,0.2678,-45.54,-24.09,-4.05,
1891,1661605310547,-1.2363,-0.7747,-0.1648,-49.86,-22.3,-1.78,
1892,1661605310547,-1.3198,-0.7957,0.5671,-46.55,-16.64,0.14,
1893,1661605310547,-1.3389,-0.6922,0.6633,-48.85,-18.59,1.68,
1894,1661605310563,-1.4189,-0.4617,0.3508,-51.26,-20.62,-1.78,
1895,1661605310563,-1.4209,-0.6019,1.0725,-55.84,1.55,0.05,
1896,1661605310563,-1.3237,-0.3607,0.6799,-53.95,0.45,2.51,
1897,1661605310563,-1.2524,-0.2557,0.3234,-52.96,-0.41,3.88,
1898,1661605310563,-1.229,-0.2733,0.5256,-48.94,2.31,6.43,
1899,1661605310563,-1.3081,-0.2708,0.7014,-49.33,5.79,6.26,
1900,1661605310563,-1.3105,-0.0462,0.3513,-50.15,1.62,7.44,
1901,1661605310563,-1.3066,0.0837,0.4943,-52.16,9.67,10.72,
1902,1661605310563,-1.2666,0.1095,0.4807,-51.34,13.8,9.43,
1903,1661605310563,-1.164,0.1174,0.2438,-51.08,15.59,10.81,
1904,1661605310563,-1.0586,0.2946,0.3679,-48.35,21.84,10.99,
1905,1661605310563,-1.0815,0.3884,0.5539,-40.35,30.22,13.08,
1906,1661605310563,-1.1289,0.4323,0.2067,-38.37,26.4,12.46,
1907,1661605310563,-1.0576,0.5627,0.3112,-38.75,34.11,10.44,
1908,1661605310563,-1.0132,0.4416,0.32,-34.45,30.39,12.36,
1909,1661605310563,-1.0483,0.4723,-0.1272,-30.65,24.3,11.17,
1910,1661605310563,-0.9507,0.6042,-0.098,-27.26,22.01,10.53,
1911,1661605310563,-0.9028,0.6281,0.1774,-21.56,21.34,17.37,
1912,1661605310573,-1.0386,0.465,-0.0643,-19.54,13.65,13.65,
1913,1661605310573,-0.7695,0.633,-0.0423,-23.75,17.78,15.37,
1914,1661605310573,-0.813,0.7487,0.2214,-20.96,22.94,15.19,
1915,1661605310573,-0.8594,0.6452,-0.1063,-12.66,25.64,12.46,
1916,1661605310573,-0.8838,0.655,-0.2933,-10.98,16.76,12.18,
1917,1661605310573,-0.6982,0.8884,0.05,-9.26,17.69,10.63,
1918,1661605310573,-0.7392,0.696,-0.5457,-6.68,7.54,5.88,
1919,1661605310573,-0.6924,0.7096,-0.7151,-3.18,12.37,9.71,
1920,1661605310573,-0.6719,0.8981,-0.3675,-5.49,13.63,8.98,
1921,1661605310573,-0.6138,0.947,-0.6238,-12.06,5.52,6.61,
1922,1661605310573,-0.6318,0.758,-0.782,-6.08,-6.49,8.98,
1923,1661605310573,-0.6855,0.7453,-0.1302,1.23,8.9,6.98,
1924,1661605310573,-0.689,0.841,-0.3387,2.83,-2.86,0.97,
1925,1661605310573,-0.6636,0.7619,-0.6941,1.23,7.3,-2.51,
1926,1661605310573,-0.6704,0.5905,-0.0486,-1.28,7.54,-0.86,
1927,1661605310573,-0.6426,0.5895,-0.5418,-3.06,2.72,-5.06,
1928,1661605310573,-0.5942,0.4924,-0.74,-1.76,-3.87,-8.71,
1929,1661605310573,-0.7392,0.3776,-0.4896,5.33,-0.15,-9.17,
1930,1661605310573,-0.8496,0.1081,-0.2645,3.41,-5.64,-8.43,
1931,1661605310573,-0.8745,-0.0599,-0.8577,-3.28,-18.24,-13.82,
1932,1661605310573,-0.9272,-0.2069,-0.2835,-10.37,-16.98,-9.62,
1933,1661605310573,-1.0195,-0.4471,-0.2752,-9.47,-24.25,-8.8,
1934,1661605310573,-0.8955,-0.3714,-0.4554,-16.76,-28.91,-7.06,
1935,1661605310573,-1.0151,-0.4637,0.1198,-22.06,-27.12,-8.71,
1936,1661605310573,-1.1128,-0.7337,0.1398,-22.06,-25.09,-6.97,
1937,1661605310573,-1.1098,-0.5369,-0.0799,-26.85,-25.61,-8.62,
1938,1661605310573,-1.1011,-0.4974,0.2087,-32.45,-14.87,-10.17,
1939,1661605310573,-1.1963,-0.6942,0.0812,-34.25,-21.97,-2.33,
1940,1661605310573,-1.0659,-0.5267,-0.1126,-35.65,-23.49,-4.24,
1941,1661605310573,-1.1015,-0.4046,-0.0169,-34.07,-27.05,-3.78,
1942,1661605310573,-1.2124,-0.6072,0.2829,-43.45,-22.13,-3.96,
1943,1661605310573,-1.2016,-0.5555,0.0944,-46.05,-21.63,-1.6,
1944,1661605310573,-1.1904,-0.2454,0.5305,-46.56,-4.46,-2.51,
1945,1661605310573,-1.3335,-0.4398,0.6555,-45.36,-4.71,-4.6,
1946,1661605310573,-1.2695,-0.4969,0.5153,-47.65,-7.67,-0.5,
1947,1661605310589,-1.3198,-0.1224,0.9655,-48.35,5.18,-0.41,
1948,1661605310589,-1.314,-0.1077,0.8645,-47.24,13.31,0.8,
1949,1661605310589,-1.3413,-0.4036,0.2556,-46.73,21.19,2.16,
1950,1661605310589,-1.2368,-0.285,0.6535,-51.05,24.21,1.96,
1951,1661605310589,-1.2661,-0.2435,0.362,-51.46,8.14,2.87,
1952,1661605310589,-1.272,-0.3519,0.113,-48.35,1.96,4.7,
1953,1661605310589,-1.188,-0.3221,0.4206,-45.97,3.32,6.34,
1954,1661605310589,-1.2402,-0.14,0.2585,-50.75,2.65,7.25,
1955,1661605310589,-1.2724,-0.095,0.1623,-49.65,6.95,9.89,
1956,1661605310589,-1.2295,-0.1356,0.6936,-49.75,14.32,15.1,
1957,1661605310589,-1.2319,0.1393,0.8254,-46.44,8.14,13.81,
1958,1661605310589,-1.2197,0.4191,0.4699,-45.77,8.9,12.55,
1959,1661605310589,-1.2051,0.278,0.7668,-36.26,18.88,10.99,
1960,1661605310589,-1.0747,0.5954,0.4968,-32.57,28.86,12.73,
