srNo,timestamp,ax,ay,az,gx,gy,gz,temp
17264,1661611077394,-1.1698,0.7034,0.7299,24.38,12.93,-4.59,
17265,1661611077394,-1.0062,0.9407,0.0112,25.77,17.85,-7.32,
17266,1661611077394,-0.8026,0.7258,-0.2193,27.87,24.2,-3.4,
17267,1661611077394,-0.9769,0.9114,0.3896,29.66,31.98,-9.61,
17268,1661611077394,-0.8285,0.8577,-0.5713,34.97,9.81,-7.04,
17269,1661611077394,-0.912,0.7102,-0.2803,39.26,12.6,-7.96,
17270,1661611077394,-0.8309,0.9446,0.1059,40.57,14.38,-9.79,
17271,1661611077394,-0.8519,0.677,-0.4361,42.17,7.53,-10.87,
17272,1661611077394,-0.8495,0.6296,-0.2662,41.36,15.06,-12.61,
17273,1661611077394,-0.8939,0.7878,-0.0323,44.55,10.49,-11.33,
17274,1661611077394,-0.8524,0.3147,-0.3731,49.68,9.91,-11.7,
17275,1661611077394,-0.8983,0.594,-0.0669,49.97,5.84,-15.53,
17276,1661611077394,-0.806,0.1482,-0.0225,47.86,9.64,-14.08,
17277,1661611077409,-0.7377,0.0408,-0.5362,48.44,-0.42,-12.52,
17278,1661611077409,-0.8275,0.1624,-0.4,48.44,11.0,-10.25,
17279,1661611077409,-0.7489,-0.1956,-0.0547,46.15,4.4,-9.61,
17280,1661611077409,-0.7631,-0.2029,-0.6382,43.67,-8.46,-11.24,
17281,1661611077409,-0.7567,-0.2273,-0.501,44.77,-15.22,-9.33,
17282,1661611077409,-0.851,-0.5588,-0.2935,39.67,-10.75,-5.59,
17283,1661611077409,-0.8363,-0.2971,-0.2818,38.27,-9.63,-5.23,
17284,1661611077409,-0.7567,-0.5691,-0.2671,37.36,-14.55,-7.96,
17285,1661611077409,-0.7445,-0.344,-0.4249,37.56,-19.7,-12.71,
17286,1661611077409,-0.6996,-0.7092,-0.4463,37.06,-12.18,-2.41,
17287,1661611077409,-0.9462,-0.5774,0.1435,31.05,-3.21,-5.78,
17288,1661611077409,-0.8793,-0.5418,-0.4136,26.36,-19.44,-2.5,
17289,1661611077409,-0.9965,-0.7317,-0.292,25.66,-22.41,-4.4,
17290,1661611077409,-0.9364,-0.3352,-0.042,22.98,-23.17,0.07,
17291,1661611077409,-0.9813,-0.7878,-0.3379,18.17,-23.09,0.8,
17292,1661611077409,-0.9877,-0.4128,0.082,18.67,-16.15,-2.31,
17293,1661611077409,-1.0311,-0.3401,0.1625,15.87,-24.19,-4.04,
17294,1661611077409,-1.0526,-0.6711,0.1552,12.28,-21.73,-0.48,
17295,1661611077409,-1.0033,-0.4519,0.0283,8.07,-17.93,-1.12,
17296,1661611077409,-1.0243,-0.6653,0.165,7.47,-9.89,5.18,
17297,1661611077409,-1.0731,-0.4021,0.4418,8.59,-7.02,2.06,
17298,1661611077409,-1.0917,-0.4524,-0.0958,8.37,-14.38,0.8,
17299,1661611077409,-1.077,-0.7107,0.1289,1.57,-15.14,4.54,
17300,1661611077409,-1.184,-0.3953,0.476,-3.83,-12.94,0.71,
17301,1661611077409,-1.2128,-0.2717,0.0942,-2.92,-21.66,5.09,
17302,1661611077409,-1.0951,-0.5374,-0.1656,-1.22,-15.81,5.99,
17303,1661611077409,-1.2123,0.0388,0.9565,-3.01,-2.45,6.44,
17304,1661611077409,-1.0707,-0.177,0.3037,-3.53,-14.88,6.26,
17305,1661611077409,-1.184,0.0183,0.0458,1.06,-14.64,5.62,
17306,1661611077409,-1.2338,0.0803,0.6699,1.58,2.54,5.25,
17307,1661611077409,-1.389,0.1477,0.9628,4.18,3.31,9.1,
17308,1661611077409,-1.1537,0.4509,-0.0811,2.86,7.7,4.81,
17309,1661611077409,-1.1293,0.2082,0.4414,3.89,14.72,9.72,
17310,1661611077409,-1.2645,0.3284,0.8959,1.87,22.58,5.18,
17311,1661611077425,-1.1693,0.8181,0.2617,4.47,3.64,1.52,
17312,1661611077425,-1.1268,0.4226,-0.294,6.97,1.28,4.99,
17313,1661611077425,-1.139,0.5076,0.3207,8.08,9.97,1.52,
17314,1661611077425,-1.202,0.8997,0.7734,8.79,1.61,5.99,
17315,1661611077425,-1.1683,0.7307,0.0253,10.59,2.71,-0.3,
17316,1661611077425,-1.1039,0.8401,0.227,12.87,6.1,2.71,
17317,1661611077425,-1.0702,0.8455,0.5761,17.68,17.18,-6.33,
17318,1661611077425,-1.1913,0.8684,0.6215,21.16,20.72,-4.5,
17319,1661611077425,-1.1112,0.8997,-0.1187,23.97,20.81,-8.14,
17320,1661611077425,-1.0433,0.5295,0.0664,26.06,28.67,-5.14,
17321,1661611077425,-1.1693,0.823,0.3178,26.85,23.68,-8.33,
17322,1661611077425,-1.0111,0.7893,-0.2154,30.39,19.22,-7.87,
17323,1661611077432,-0.7621,0.5457,-0.4732,33.17,6.77,-9.42,
17324,1661611077432,-0.9384,0.6165,-0.272,37.36,6.01,-9.61,
17325,1661611077432,-0.9291,0.6672,0.1889,37.26,8.37,-4.13,
17326,1661611077432,-1.0087,0.4368,-0.2535,38.46,6.17,-7.5,
17327,1661611077433,-0.9774,0.3909,-0.1519,40.75,8.13,-5.05,
17328,1661611077433,-0.7992,0.468,0.0991,39.55,6.1,-4.86,
17329,1661611077434,-0.933,0.6052,0.2866,40.36,13.96,-6.42,
17330,1661611077434,-0.6556,0.3596,-0.2989,46.35,7.78,-6.05,
17331,1661611077434,-0.9423,0.3411,-0.2139,45.06,9.97,-6.42,
17332,1661611077435,-0.8724,0.571,0.0087,40.46,4.74,-8.78,
17333,1661611077435,-0.7333,0.3074,-0.0816,39.15,6.68,-6.14,
17334,1661611077436,-0.7094,0.2932,-0.3145,45.74,13.45,-10.97,
17335,1661611077436,-0.6596,0.3254,-0.9278,49.25,-4.4,-12.61,
17336,1661611077438,-0.7562,0.1213,-0.3233,40.25,-3.64,-13.71,
17337,1661611077438,-0.7875,0.2712,-0.0425,43.25,-9.39,-16.99,
17338,1661611077438,-0.6967,-0.199,-0.9385,49.36,-6.34,-9.24,
17339,1661611077439,-0.7826,-0.0725,-0.3506,45.06,-5.16,-11.61,
17340,1661611077440,-0.8925,-0.2644,0.2246,38.84,-1.94,-17.36,
17341,1661611077440,-0.7943,-0.5745,-0.6089,41.06,-18.35,-15.53,
17342,1661611077440,-0.8261,-0.4812,-0.5884,39.65,-9.13,-7.69,
17343,1661611077440,-0.8392,-0.7996,0.0688,35.15,-0.68,-6.05,
17344,1661611077441,-0.8412,-0.738,-0.0396,30.56,-9.13,-5.69,
17345,1661611077441,-0.9013,-0.6912,-0.5987,29.67,-22.07,-6.77,
17346,1661611077442,-0.892,-1.135,-0.4034,26.07,-26.98,-1.03,
17347,1661611077442,-1.0902,-0.7229,0.2377,17.25,-16.74,-3.67,
17348,1661611077443,-0.9359,-0.8157,-0.107,17.56,-23.34,-2.13,
17349,1661611077443,-0.9701,-0.8616,-0.4092,18.78,-32.98,0.8,
17350,1661611077444,-0.9291,-0.6399,0.437,13.76,-21.23,1.52,
17351,1661611077444,-1.1762,-0.679,0.3793,9.26,-18.44,4.35,
17352,1661611077445,-0.955,-0.5291,-0.3301,8.16,-17.67,2.43,
17353,1661611077445,-1.1654,-0.6213,0.3725,3.57,-10.99,4.26,
17354,1661611077446,-1.1513,-0.3645,0.6611,-0.03,-15.65,-0.3,
17355,1661611077446,-1.0473,-0.2771,-0.0215,8.98,-26.89,3.71,
17356,1661611077446,-1.1581,-0.488,-0.0748,5.08,-18.53,3.16,
17357,1661611077447,-1.2123,0.0515,0.3417,0.47,-21.99,2.43,
17358,1661611077447,-1.1683,-0.2913,0.3442,-4.12,-14.29,4.72,
17359,1661611077448,-1.1825,-0.0154,0.5385,-3.42,-6.76,2.43,
17360,1661611077448,-1.0844,0.0559,0.1083,0.99,-7.79,3.62,
17361,1661611077449,-1.163,-0.0989,0.1743,0.99,-1.1,0.34,
17362,1661611077449,-1.2767,0.1062,0.8344,1.19,9.06,1.7,
17363,1661611077449,-1.2367,-0.0657,0.3896,3.38,10.49,8.18,
17364,1661611077449,-1.1444,0.1208,-0.0215,1.28,5.58,2.61,
17365,1661611077449,-1.2489,0.4246,0.2846,0.27,9.64,0.62,
17366,1661611077450,-1.181,0.1741,0.5898,1.98,8.54,2.89,
17367,1661611077450,-1.1649,0.1282,-0.0328,3.37,-0.42,2.98,
17368,1661611077451,-1.204,0.4851,-0.0049,5.67,-0.25,7.73,
17369,1661611077451,-1.0321,0.3977,0.5346,6.86,-0.59,7.91,
17370,1661611077451,-1.2953,0.5696,0.4619,5.28,-1.18,5.89,
17371,1661611077452,-1.0902,0.6033,0.4326,6.07,1.02,9.91,
17372,1661611077452,-1.1337,0.5461,0.4462,8.79,-4.48,8.92,
17373,1661611077454,-1.1449,0.8586,0.4638,14.68,9.9,6.54,
17374,1661611077454,-1.0062,0.8127,0.5449,22.67,15.31,3.44,
17375,1661611077456,-1.1366,0.8503,0.4106,23.17,27.83,3.99,
17376,1661611077456,-1.0175,1.0764,0.1967,20.15,19.88,-0.12,
17377,1661611077456,-1.0184,0.7927,0.0122,20.37,18.44,3.53,
17378,1661611077456,-1.0272,1.0305,0.3081,23.05,13.36,-2.67,
17379,1661611077457,-0.8954,0.9138,-0.3321,32.16,-0.01,-2.22,
17380,1661611077457,-0.9515,0.9114,-0.0059,33.26,20.04,0.52,
17381,1661611077457,-0.9945,0.9631,-0.1451,33.17,17.85,-2.85,
17382,1661611077457,-0.8646,0.804,-0.2305,33.75,21.65,-1.22,
17383,1661611077457,-0.8881,0.759,-0.0611,36.57,15.56,-6.05,
17384,1661611077457,-0.9242,0.6887,-0.2613,47.15,9.39,-3.86,
17385,1661611077457,-0.931,0.3713,-0.1656,51.66,15.56,-4.86,
17386,1661611077461,-0.9418,0.4734,-0.1656,43.97,19.04,-5.14,
17387,1661611077461,-0.8368,0.2581,-0.4371,41.76,5.92,-6.77,
17388,1661611077461,-0.7128,0.2429,-0.3731,41.65,0.85,-7.78,
17389,1661611077461,-0.9198,0.3474,0.0117,49.34,-2.2,-5.59,
17390,1661611077461,-0.8158,-0.2014,-0.4727,51.27,-10.75,-3.86,
17391,1661611077461,-0.8139,0.094,-0.0655,44.46,0.42,-9.88,
17392,1661611077461,-0.6742,0.0549,0.3647,44.95,6.43,-5.41,
17393,1661611077461,-0.747,-0.2678,-0.8428,46.05,-4.83,-8.78,
17394,1661611077461,-0.7079,-0.0828,-0.3814,43.85,3.72,-11.97,
17395,1661611077461,-0.9428,-0.262,0.2363,42.06,6.1,-9.33,
17396,1661611077461,-0.8588,-0.1736,-0.1226,41.97,-6.09,-14.17,
17397,1661611077461,-0.6327,-0.2532,-1.1661,44.17,-19.2,-14.17,
17398,1661611077461,-0.8641,-0.3323,-0.2603,35.87,-2.61,-14.08,
17399,1661611077461,-0.7914,-0.1423,-0.2754,38.07,-20.89,-12.06,
17400,1661611077461,-0.7914,-0.7419,-0.8399,37.94,-19.2,-9.52,
17401,1661611077461,-0.8065,-0.3001,-0.004,28.18,-19.44,-4.4,
17402,1661611077461,-0.911,-0.5627,-0.1021,28.18,-20.21,-6.42,
17403,1661611077461,-0.9628,-0.739,-0.0992,29.95,-13.19,-5.05,
17404,1661611077461,-0.9506,-0.6379,-0.0948,23.36,-9.89,-1.31,
17405,1661611077469,-1.0624,-0.7751,0.124,20.06,-10.06,-0.94,
17406,1661611077469,-1.0985,-0.5295,0.0917,17.27,-15.05,-4.5,
17407,1661611077469,-0.9598,-1.0139,-0.2852,16.26,-17.51,-0.3,
17408,1661611077469,-1.0477,-0.6252,-0.0093,6.79,-16.32,-2.94,
17409,1661611077469,-1.077,-0.5813,0.0634,3.89,-25.46,-2.57,
17410,1661611077469,-0.9408,-0.8787,-0.2471,8.17,-36.46,-1.49,
17411,1661611077469,-1.0487,-0.6199,0.0165,4.79,-27.23,-2.76,
17412,1661611077469,-1.1508,-0.4973,0.4321,1.06,-22.66,-0.12,
17413,1661611077469,-1.2328,-0.594,0.1806,-1.42,-22.41,1.79,
17414,1661611077469,-1.1434,-0.2473,0.5156,-0.61,-13.02,1.7,
17415,1661611077469,-1.2308,-0.2996,0.5805,-1.03,-14.29,2.71,
17416,1661611077469,-1.1366,0.0896,0.4755,0.48,-1.1,-0.94,
17417,1661611077469,-1.1288,-0.2141,0.3955,2.09,2.79,0.62,
17418,1661611077469,-1.3339,-0.156,0.4521,-1.91,5.41,-0.3,
17419,1661611077469,-1.2035,0.425,0.4418,-2.54,-1.87,-1.95,
17420,1661611077469,-1.1415,0.0911,0.1279,-1.13,-1.78,1.42,
17421,1661611077469,-1.0858,0.4163,0.2104,1.16,2.54,-7.32,
17422,1661611077469,-1.1508,0.5593,0.2143,5.28,0.25,-2.13,
17423,1661611077469,-1.2201,0.3235,0.3842,6.57,0.35,-0.03,
17424,1661611077469,-1.2157,0.6389,0.4697,4.67,-0.59,-1.77,
17425,1661611077469,-1.1596,0.5242,0.3041,5.69,7.78,1.42,
17426,1661611077469,-1.1967,0.4968,0.3554,7.87,8.63,1.16,
17427,1661611077469,-1.1586,0.7776,0.4926,8.27,17.25,1.33,
17428,1661611077469,-1.0985,0.5183,0.331,11.49,25.46,4.08,
17429,1661611077469,-1.1586,0.6853,0.1884,15.07,22.75,-0.94,
17430,1661611077469,-1.1947,0.886,0.2192,14.26,14.05,-2.22,
17431,1661611077469,-1.0839,0.5715,0.434,16.86,11.0,-0.57,
17432,1661611077469,-1.1322,0.781,0.1591,19.95,7.27,-6.42,
17433,1661611077469,-1.0399,0.6316,-0.1187,26.06,2.95,1.42,
17434,1661611077469,-1.1752,0.5818,0.4414,25.26,10.16,1.97,
17435,1661611077469,-1.1508,0.8064,0.5825,26.45,21.24,-1.31,
17436,1661611077469,-0.8036,0.7639,-0.1636,30.85,17.01,-3.21,
17437,1661611077469,-0.9838,0.6975,-0.1724,31.67,16.92,-3.76,
17438,1661611077469,-0.9359,0.7502,0.4072,34.85,11.67,-3.58,
17439,1661611077469,-1.057,0.5437,-0.17,37.15,8.04,-3.31,
17440,1661611077485,-0.8002,0.8845,-0.4146,41.97,13.19,-6.05,
17441,1661611077485,-0.7601,0.6965,-0.3458,43.06,16.41,-7.69,
17442,1661611077485,-0.8886,0.5393,0.0043,40.86,17.25,-10.51,
17443,1661611077485,-0.8226,0.7048,-0.5035,45.47,-1.68,-9.88,
17444,1661611077485,-0.8729,0.4514,-0.3658,46.26,2.88,-8.88,
17445,1661611077485,-0.8666,0.6277,-0.1236,44.37,-4.83,-14.8,
17446,1661611077485,-0.745,0.3196,-0.2823,40.95,4.05,-10.25,
17447,1661611077485,-0.7142,0.3679,-0.148,48.15,11.76,-16.35,
17448,1661611077485,-0.7865,0.1155,-0.4961,53.63,4.65,-15.07,
17449,1661611077485,-0.785,-0.1003,-0.3531,50.66,-2.2,-18.0,
17450,1661611077485,-0.8182,0.0706,0.0898,45.97,-3.38,-19.36,
17451,1661611077485,-0.7094,-0.2053,-0.6714,48.06,-7.7,-16.63,
17452,1661611077485,-0.7645,-0.4788,-0.8536,45.54,-4.57,-7.96,
17453,1661611077485,-0.8505,-0.1653,0.1362,37.96,-0.17,-9.61,
17454,1661611077485,-0.7841,-0.7898,-0.6778,37.35,-25.72,-5.69,
17455,1661611077485,-0.9022,-0.6565,-0.6475,37.17,-28.08,-9.7,
17456,1661611077485,-0.8754,-0.6277,0.3227,32.99,-10.64,-1.67,
17457,1661611077485,-0.9027,-0.7776,-0.3545,31.37,-17.93,-2.5,
17458,1661611077485,-0.8666,-0.804,-0.3106,26.27,-18.44,-7.69,
17459,1661611077485,-1.0399,-0.7835,0.3657,25.66,-14.71,-7.78,
17460,1661611077485,-0.8934,-0.5544,-0.4898,23.56,-21.57,-9.52,
17461,1661611077485,-1.0082,-0.8167,-0.0513,23.77,-17.17,0.89,
17462,1661611077485,-1.0277,-0.3577,0.2255,15.77,-14.38,-4.59,
17463,1661611077485,-0.9432,-0.4397,-0.4249,14.87,-34.84,1.07,
17464,1661611077485,-1.0707,-0.7146,-0.211,8.79,-15.14,3.16,
17465,1661611077485,-1.0658,-0.2961,0.5317,5.58,-20.56,6.99,
17466,1661611077498,-0.9769,-0.5696,-0.2745,5.96,-25.62,1.26,
17467,1661611077498,-1.0551,-0.3191,0.3344,7.67,-18.1,1.88,
17468,1661611077498,-1.1019,-0.3235,0.5698,9.88,-14.46,2.89,
17469,1661611077498,-1.181,-0.4592,0.0908,4.48,-12.43,2.25,
17470,1661611077498,-1.1713,-0.262,0.0849,0.77,-5.33,-3.86,
17471,1661611077498,-1.1908,-0.3577,0.4443,-2.92,-3.9,-0.39,
17472,1661611077498,-1.1444,-0.3069,0.311,-3.03,-5.16,3.62,
17473,1661611077498,-1.1952,0.0364,0.1069,-2.02,-4.57,1.79,
17474,1661611077498,-1.08,-0.3455,0.2895,1.77,-3.38,5.35,
17475,1661611077498,-1.244,-0.2229,0.3857,-0.74,-9.22,6.81,
17476,1661611077498,-1.2177,0.1238,0.4165,-2.32,-7.1,6.99,
17477,1661611077503,-1.1605,-0.071,0.2602,-3.82,-6.67,4.99,
17478,1661611077503,-1.1942,0.363,0.5727,2.07,2.45,3.07,
17479,1661611077503,-1.0883,0.1296,0.5053,4.27,1.61,7.54,
17480,1661611077503,-1.2694,0.217,0.3955,4.68,7.11,6.08,
17481,1661611077503,-1.0951,0.6594,0.479,9.76,16.32,4.81,
17482,1661611077503,-1.1986,0.3962,0.2656,10.66,12.86,2.8,
17483,1661611077503,-1.2826,0.5198,0.3959,5.67,22.41,-1.95,
17484,1661611077503,-1.1556,0.8665,0.4907,8.08,11.5,3.07,
17485,1661611077503,-1.1473,0.5901,0.04,10.77,4.98,1.61,
17486,1661611077503,-1.0624,1.1042,0.289,13.58,4.91,-1.77,
17487,1661611077503,-1.016,1.0627,0.3759,18.17,7.53,2.89,
17488,1661611077509,-1.0951,0.7175,0.2612,22.37,12.52,2.61,
17489,1661611077509,-1.099,0.9841,0.1401,21.57,8.46,-0.76,
17490,1661611077509,-1.1537,0.8176,0.3598,22.4,19.22,-1.12,
17491,1661611077509,-1.0844,0.8982,0.1323,27.86,19.28,-3.49,
17492,1661611077509,-1.0194,0.8899,-0.0342,30.56,23.51,-6.86,
17493,1661611077509,-0.9584,0.7351,0.0366,33.66,24.1,-2.94,
17494,1661611077509,-0.9882,0.7927,-0.2671,37.27,10.4,-6.5,
17495,1661611077509,-0.8798,0.5671,-0.3033,37.47,13.29,-2.76,
17496,1661611077509,-0.8881,0.5735,-0.1793,39.17,10.74,-5.87,
17497,1661611077509,-0.9613,0.5271,-0.3834,41.87,3.05,-6.59,
17498,1661611077509,-0.8876,0.2834,-0.4669,45.25,-5.57,-3.03,
17499,1661611077509,-0.8905,0.3098,-0.0469,43.76,2.88,-3.21,
17500,1661611077509,-0.7509,0.4241,0.227,46.46,6.27,-5.05,
17501,1661611077509,-0.9633,0.1848,-0.2916,44.95,7.94,-2.76,
17502,1661611077509,-0.8837,0.2048,-0.0855,41.36,6.17,-3.67,
17503,1661611077509,-0.9227,0.135,0.2934,41.96,5.58,-4.04,
17504,1661611077509,-0.851,0.3196,0.3071,41.76,13.45,-6.77,
17505,1661611077509,-0.6654,0.2004,-0.7359,46.15,-3.04,-9.97,
17506,1661611077509,-0.7274,-0.1965,-0.8101,46.05,-0.17,-11.06,
17507,1661611077509,-0.7509,0.4207,0.0864,46.46,1.02,-8.14,
17508,1661611077509,-0.7597,-0.1697,-0.9092,48.06,-8.03,-9.42,
17509,1661611077509,-0.684,-0.1126,-0.9385,40.77,-15.14,-10.97,
17510,1661611077509,-0.8363,-0.1067,0.0292,36.95,-17.67,-9.7,
17511,1661611077509,-0.9784,-0.3313,-0.1773,38.17,-13.11,-15.07,
17512,1661611077509,-0.8275,-0.47,-0.733,39.17,-18.01,-8.88,
17513,1661611077509,-0.931,-0.6487,0.2382,34.16,-2.37,-11.52,
17514,1661611077509,-0.9569,-0.408,0.4838,30.38,-4.48,-13.16,
17515,1661611077509,-0.9213,-0.6306,-0.2872,32.16,-14.46,-6.14,
17516,1661611077509,-0.9081,-1.1414,-0.5157,27.16,-16.41,-1.58,
17517,1661611077509,-1.077,-0.4885,0.0434,18.26,-10.82,-8.14,
17518,1661611077509,-0.9989,-0.8479,-0.2232,21.68,-21.06,-3.76,
17519,1661611077509,-0.953,-0.969,-0.5352,19.48,-31.8,0.98,
17520,1661611077509,-1.0053,-0.7527,-0.0645,13.87,-32.64,3.26,
17521,1661611077509,-1.1434,-0.7356,0.2895,6.07,-27.58,1.97,
17522,1661611077509,-0.9711,-0.5569,0.2412,9.27,-20.21,1.97,
17523,1661611077509,-1.0253,-0.7869,0.1191,7.18,-18.94,2.98,
17524,1661611077509,-1.1254,-0.5798,0.1181,1.08,-19.54,1.7,
17525,1661611077509,-1.0409,-0.3948,0.3549,2.16,-16.15,3.71,
17526,1661611077509,-1.2606,-0.5847,0.6518,4.79,-6.76,2.16,
17527,1661611077524,-1.1913,0.052,-0.084,4.77,-15.9,-2.31,
17528,1661611077524,-1.1425,-0.282,-0.021,0.07,-14.64,-0.67,
17529,1661611077524,-1.14,-0.0447,0.9228,-5.42,0.09,2.52,
17530,1661611077524,-1.2382,0.1516,0.4716,-2.11,-12.69,-2.22,
17531,1661611077524,-1.1576,-0.0139,-0.4092,-0.32,-10.75,2.16,
17532,1661611077524,-1.2294,0.1741,0.7543,-1.82,-3.13,-1.58,
17533,1661611077524,-1.2211,0.1155,0.8857,-1.22,-2.03,4.08,
17534,1661611077524,-1.1947,0.2029,0.039,0.77,-1.94,-4.68,
17535,1661611077524,-1.1478,0.4114,0.5468,0.16,7.36,-1.4,
17536,1661611077524,-1.182,0.2825,0.9165,3.29,22.18,2.61,
17537,1661611077524,-1.1259,0.3337,0.31,4.16,22.07,-1.49,
17538,1661611077524,-1.122,0.5554,-0.1793,4.97,12.77,0.43,
17539,1661611077524,-1.1351,0.3845,0.4414,6.79,8.54,3.16,
17540,1661611077524,-1.2841,0.5369,0.5815,8.36,-1.61,3.44,
17541,1661611077524,-1.1425,0.6326,0.0439,12.28,-3.97,1.42,
17542,1661611077524,-1.1478,0.4407,0.082,13.38,-4.83,5.71,
17543,1661611077524,-1.1215,0.802,0.8168,16.16,15.22,4.17,
17544,1661611077524,-0.9828,0.8127,0.6801,19.88,16.49,3.07,
17545,1661611077524,-1.1464,0.7117,0.0893,19.37,16.66,1.79,
17546,1661611077524,-1.0311,0.7683,0.5385,24.58,18.11,3.62,
17547,1661611077524,-1.2904,0.7102,0.4223,26.67,15.48,1.61,
17548,1661611077524,-0.9799,0.9783,-0.129,25.28,16.66,-1.31,
17549,1661611077524,-0.8392,0.8655,-0.2408,29.87,20.3,-4.22,
17550,1661611077524,-1.0267,0.8074,0.0913,28.16,24.78,-3.03,
17551,1661611077524,-0.9149,0.9792,-0.4239,34.37,3.64,-5.14,
17552,1661611077524,-0.8983,0.6809,-0.3033,38.46,10.83,-1.22,
17553,1661611077524,-0.8783,0.8591,-0.0567,39.46,5.67,-7.69,
17554,1661611077524,-0.8246,0.6467,-0.4556,39.94,3.81,-4.31,
17555,1661611077524,-0.913,0.6228,-0.2066,41.16,19.11,-9.7,
17556,1661611077524,-0.9056,0.7263,0.0214,44.84,13.19,-3.76,
17557,1661611077524,-0.8671,0.3123,-0.3804,50.44,12.86,-6.5,
17558,1661611077524,-0.8163,0.4797,-0.107,46.96,15.15,-10.87,
17559,1661611077540,-0.8129,0.2634,-0.2437,46.57,6.68,-11.42,
17560,1661611077540,-0.7074,0.0203,-0.6529,47.95,-6.86,-11.61,
17561,1661611077540,-0.8427,0.1672,-0.1304,47.57,0.18,-12.71,
17562,1661611077540,-0.6566,-0.3035,-0.3614,48.85,-2.87,-10.16,
17563,1661611077540,-0.6976,-0.2898,-0.6705,45.07,-12.35,-17.91,
17564,1661611077540,-0.7655,-0.1726,-0.3135,48.06,-14.71,-11.33,
17565,1661611077540,-0.8554,-0.5359,-0.1719,41.16,-13.88,-9.61,
17566,1661611077540,-0.8558,-0.2961,-0.2657,34.97,-4.4,-2.04,
17567,1661611077540,-0.7748,-0.4959,-0.0894,34.86,-5.16,-1.31,
17568,1661611077540,-0.7938,-0.3293,-0.2442,35.06,-12.26,-2.76,
17569,1661611077540,-0.681,-0.6414,-0.6841,33.66,-16.41,-3.58,
17570,1661611077540,-0.9608,-0.6287,0.1206,34.05,0.93,-3.86,
17571,1661611077540,-0.9071,-0.4158,-0.4546,33.17,-18.27,-8.6,
17572,1661611077546,-0.9154,-0.7869,-0.7466,25.77,-26.81,-2.76,
17573,1661611077546,-0.9017,-0.2644,0.1538,21.77,-25.96,-7.87,
17574,1661611077546,-0.9066,-0.762,-0.3663,23.75,-26.39,-4.68,
17575,1661611077546,-0.9965,-0.5876,-0.0665,20.87,-20.97,-6.95,
17576,1661611077546,-1.0868,-0.4861,0.4096,16.17,-22.5,-0.94,
17577,1661611077546,-1.1171,-0.6785,0.2094,15.47,-19.2,-0.39,
17578,1661611077546,-1.0624,-0.4822,-0.0601,11.88,-21.66,2.98,
17579,1661611077546,-1.0101,-0.6243,0.1445,6.18,-6.67,7.91,
17580,1661611077546,-0.9945,-0.5466,0.3994,4.48,-6.67,1.33,
17581,1661611077550,-1.0775,-0.3669,-0.169,4.57,-16.67,0.89,
17582,1661611077550,-1.0551,-0.8411,-0.0445,8.3,-22.31,3.99,
17583,1661611077550,-1.3065,-0.2097,0.4516,0.09,-21.99,2.25,
17584,1661611077550,-1.1268,-0.4749,-0.1861,-2.03,-28.42,4.99,
17585,1661611077550,-1.0863,-0.6379,-0.2266,-3.22,-16.84,8.18,
17586,1661611077550,-1.204,0.03,0.9169,-1.53,4.91,8.0,
17587,1661611077550,-1.1078,-0.1228,0.6137,-1.62,-6.76,9.91,
17588,1661611077550,-1.2728,-0.1057,0.0331,0.27,-14.97,6.81,
17589,1661611077550,-1.1669,0.0579,0.9877,-0.93,-0.59,8.37,
17590,1661611077550,-1.3671,0.1892,0.7568,-1.73,4.91,10.18,
17591,1661611077550,-1.1718,0.4519,0.2602,0.48,9.9,2.61,
17592,1661611077550,-1.0189,0.2205,0.0107,5.28,10.23,6.9,
17593,1661611077550,-1.1659,0.4377,0.6923,5.89,23.51,2.8,
17594,1661611077550,-1.204,0.8293,0.5322,5.08,6.85,3.44,
17595,1661611077550,-1.1469,0.5789,-0.1334,8.77,3.89,9.82,
17596,1661611077550,-1.1278,0.5857,0.3754,8.46,9.47,3.07,
17597,1661611077550,-1.1552,0.9075,0.58,6.88,4.65,2.61,
17598,1661611077550,-1.1972,0.8269,0.4335,7.38,6.1,-2.5,
17599,1661611077550,-1.0619,0.8049,0.1865,14.48,5.75,-0.39,
17600,1661611077550,-0.994,0.8108,0.4951,20.46,21.48,-0.3,
17601,1661611077550,-1.1088,0.8542,0.4584,21.16,24.96,-3.03,
17602,1661611077550,-1.1527,0.8728,0.1464,24.06,20.9,-3.67,
17603,1661611077561,-1.0424,0.552,-0.1055,23.75,24.27,-3.86,
17604,1661611077561,-1.1141,0.7082,0.2797,22.66,19.71,-4.22,
17605,1661611077561,-1.1508,0.9553,0.0546,26.06,16.58,-8.69,
17606,1661611077561,-0.8251,0.3596,-0.6534,34.36,2.71,-4.95,
17607,1661611077561,-0.9481,0.6892,0.227,34.77,9.9,-7.78,
17608,1661611077561,-0.9721,0.7678,0.5991,32.77,9.73,-4.31,
17609,1661611077561,-1.0306,0.4558,-0.3213,36.56,1.09,-4.13,
17610,1661611077561,-0.9359,0.3967,-0.2623,39.85,12.43,-3.4,
17611,1661611077561,-0.9652,0.6042,0.5283,41.76,16.08,-4.22,
17612,1661611077561,-0.8295,0.6931,-0.2237,40.95,11.59,-9.33,
17613,1661611077561,-0.7103,0.1526,-0.6441,47.27,4.05,-5.41,
17614,1661611077561,-0.9242,0.1746,-0.1187,44.86,13.7,-5.78,
17615,1661611077561,-0.9252,0.782,-0.0523,42.75,-1.78,-4.22,
17616,1661611077561,-0.7758,0.3181,-0.775,43.27,1.18,-5.78,
17617,1661611077561,-0.6742,0.323,-0.2535,41.87,5.58,-10.25,
17618,1661611077561,-0.6493,0.2986,-0.6846,44.44,-7.79,-10.87,
17619,1661611077561,-0.7279,0.1926,-0.2686,46.86,-5.16,-10.34,
17620,1661611077561,-0.7304,0.0535,-0.1641,49.76,-3.55,-10.51,
17621,1661611077561,-0.7352,-0.1501,-0.5274,48.24,-5.83,-11.61,
17622,1661611077561,-0.8197,-0.0955,-0.5919,43.54,-7.44,-13.07,
17623,1661611077561,-0.8886,-0.1912,0.1655,42.17,-3.04,-16.44,
17624,1661611077561,-0.85,-0.7498,-0.4419,37.26,-18.18,-15.62,
17625,1661611077561,-0.8851,-0.3821,-0.689,36.27,-13.11,-12.34,
17626,1661611077561,-0.8959,-0.6809,0.0883,36.27,-9.47,-6.59,
17627,1661611077561,-0.89,-0.8538,-0.2378,35.66,-20.97,-5.96,
17628,1661611077561,-0.806,-0.7595,-0.5723,28.48,-25.87,-4.68,
17629,1661611077561,-0.953,-0.9397,0.0195,21.18,-19.37,1.26,
17630,1661611077561,-0.9589,-0.7463,0.0161,21.68,-20.21,2.98,
17631,1661611077561,-0.9169,-0.9011,-0.3121,18.38,-25.2,5.62,
17632,1661611077561,-0.9774,-0.5085,0.0786,16.99,-22.15,0.16,
17633,1661611077561,-0.9808,-0.802,0.164,15.06,-24.45,0.71,
17634,1661611077561,-1.1776,-0.8513,0.2192,10.68,-18.18,1.33,
17635,1661611077561,-1.0106,-0.2947,0.0678,8.28,-21.23,-0.21,
17636,1661611077561,-1.0028,-0.553,-0.0274,4.68,-17.84,1.07,
17637,1661611077561,-1.0136,-0.3899,0.3647,3.98,-20.8,-1.03,
17638,1661611077561,-1.014,-0.2918,0.0996,7.58,-22.07,2.43,
17639,1661611077577,-1.1395,-0.2854,0.1528,4.38,-17.17,-0.03,
17640,1661611077577,-1.1967,-0.115,0.2998,1.08,-17.34,-3.03,
17641,1661611077577,-1.2377,-0.3103,0.5341,-1.22,-6.43,0.8,
17642,1661611077577,-1.1918,-0.0696,0.5327,-3.44,-4.74,-0.12,
17643,1661611077577,-1.1156,0.0232,0.0952,-1.82,-8.53,0.71,
17644,1661611077577,-1.2533,-0.2683,0.4926,0.68,-3.47,1.52,
17645,1661611077577,-1.3119,0.1462,0.6621,0.97,1.28,6.35,
17646,1661611077577,-1.2147,0.1042,0.3456,3.17,2.28,3.8,
17647,1661611077577,-1.1273,-0.1365,0.1206,0.56,4.98,4.17,
17648,1661611077577,-1.3305,0.4011,0.6782,-2.31,11.0,0.98,
17649,1661611077577,-1.1254,0.0403,0.1547,1.69,2.95,2.43,
17650,1661611077577,-1.0897,0.0544,-0.0572,4.99,3.31,7.54,
17651,1661611077577,-1.202,0.5227,0.5942,8.68,13.45,3.9,
17652,1661611077577,-1.0433,0.4182,0.3339,6.77,-1.61,2.43,
17653,1661611077577,-1.182,0.7234,0.2456,8.16,-1.35,4.26,
17654,1661611077577,-1.2103,0.6946,0.5805,9.76,7.53,5.62,
17655,1661611077577,-1.3046,0.51,0.4604,13.07,4.98,5.89,
17656,1661611077577,-1.0077,0.9812,0.2294,17.06,13.7,-0.85,
17657,1661611077577,-1.079,0.8249,0.4731,19.37,21.24,-0.03,
17658,1661611077577,-1.1317,0.6863,0.4096,19.66,22.17,-1.67,
17659,1661611077577,-1.0214,0.8899,-0.129,21.88,7.53,1.07,
17660,1661611077577,-1.1649,0.9177,0.2905,24.76,16.58,-4.68,
17661,1661611077577,-1.0316,1.1057,0.0615,26.15,11.59,-5.5,
17662,1661611077577,-0.8495,0.8518,-0.3975,28.06,11.59,-3.58,
17663,1661611077577,-0.9774,0.8362,-0.0259,29.66,24.1,-5.23,
17664,1661611077577,-1.0443,0.9661,0.1425,35.17,7.94,-6.68,
17665,1661611077577,-0.8705,0.6467,-0.3531,40.86,9.81,-6.59,
17666,1661611077577,-0.9013,0.7463,-0.0826,40.25,10.74,-7.59,
17667,1661611077577,-0.932,0.5955,-0.1026,43.16,17.42,-8.23,
17668,1661611077577,-0.8563,0.3259,-0.3824,46.15,11.33,-8.97,
17669,1661611077577,-0.8959,0.4817,-0.1275,43.54,13.62,-6.77,
17670,1661611077577,-0.8593,0.3547,-0.1617,46.55,1.09,-9.61,
17671,1661611077577,-0.7826,0.1614,-0.502,47.97,-5.33,-5.05,
17672,1661611077577,-0.9364,0.2034,-0.171,47.16,-2.61,-8.14,
17673,1661611077577,-0.8285,-0.0945,-0.1587,46.84,-9.89,-5.96,
17674,1661611077577,-0.8085,0.2102,-0.0064,44.25,-3.71,-9.97,
17675,1661611077592,-0.6083,-0.0774,-0.1534,45.97,-2.87,-9.24,
17676,1661611077592,-0.7011,-0.2327,-0.7198,48.44,-2.45,-11.42,
17677,1661611077592,-0.6498,-0.1624,-0.3194,45.56,-2.87,-6.95,
17678,1661611077592,-0.8519,-0.2019,0.1127,39.87,-0.01,-9.97,
17679,1661611077592,-0.7826,-0.0227,-0.2999,39.94,-14.12,-10.25,
17680,1661611077592,-0.704,-0.4299,-1.3184,39.87,-20.47,-11.24,
17681,1661611077592,-0.8783,-0.2351,0.1547,31.95,0.16,-5.32,
17682,1661611077592,-0.8788,-0.2136,-0.2501,34.65,-24.19,-5.14,
17683,1661611077592,-0.8441,-0.6746,-0.9258,34.76,-24.69,-3.03,
17684,1661611077592,-0.8827,-0.2361,0.3496,32.45,-18.94,-10.07,
17685,1661611077592,-0.9955,-0.6663,0.1103,30.48,-14.62,0.07,
17686,1661611077592,-0.8856,-0.6062,-0.3453,30.16,-12.35,-4.22,
17687,1661611077592,-0.9696,-0.7327,0.1323,24.26,-12.18,-0.85,
17688,1661611077592,-1.0326,-0.7835,0.1513,22.47,-17.08,-2.94,
17689,1661611077592,-1.0419,-0.5784,-0.2891,16.66,-23.6,-0.21,
17690,1661611077592,-0.9779,-1.0217,-0.1636,12.58,-18.01,3.71,
17691,1661611077592,-1.1283,-0.4885,0.1679,4.88,-22.33,-0.94,
17692,1661611077592,-1.1137,-0.4451,0.0825,5.78,-33.15,2.25,
17693,1661611077592,-0.827,-0.927,-0.2476,6.28,-32.74,4.72,
17694,1661611077592,-1.0604,-0.3411,0.3334,5.98,-19.2,2.89,
17695,1661611077592,-1.0512,-0.5916,0.2485,4.27,-22.16,5.35,
17696,1661611077592,-1.2587,-0.4832,0.2104,1.08,-15.9,3.44,
17697,1661611077592,-1.1395,-0.2498,0.6176,-0.72,-5.83,3.44,
17698,1661611077592,-1.2133,-0.3059,0.4589,0.29,-9.39,0.43,
17699,1661611077592,-1.1635,0.0286,0.3745,-1.82,-4.23,-0.12,
17700,1661611077592,-1.1517,-0.1648,0.559,1.87,-5.83,0.16,
17701,1661611077592,-1.247,-0.0383,0.3447,-1.42,-6.76,-1.03,
17702,1661611077592,-1.2094,0.3611,0.3198,-2.31,-9.39,0.89,
17703,1661611077592,-1.1381,0.1707,0.4619,-1.93,-1.61,4.26,
17704,1661611077592,-1.1454,0.2219,0.5009,-1.13,1.44,1.26,
17705,1661611077592,-1.1332,0.4998,0.124,-0.11,0.35,1.33,
17706,1661611077592,-1.2597,0.3743,0.621,4.07,8.97,1.7,
17707,1661611077592,-1.202,0.5583,0.7221,6.57,4.48,0.8,
17708,1661611077608,-1.1806,0.5295,0.1811,7.37,8.88,2.98,
17709,1661611077608,-1.164,0.5413,0.3491,6.68,12.19,-2.04,
17710,1661611077608,-1.1127,0.7615,0.3784,9.37,15.73,-0.76,
17711,1661611077608,-1.077,0.5813,0.1581,10.77,18.27,0.43,
17712,1661611077608,-1.0722,0.5579,0.0961,11.56,16.92,0.62,
17713,1661611077608,-1.1151,0.8665,0.3373,11.58,10.32,-2.57,
17714,1661611077608,-1.0106,0.4412,0.1196,20.67,5.84,-0.03,
17715,1661611077608,-1.0858,0.5745,0.1308,27.48,8.8,-2.67,
17716,1661611077608,-1.12,0.7717,0.2788,28.76,10.83,5.53,
17717,1661611077608,-1.1141,0.6296,0.2831,24.97,6.68,2.98,
17718,1661611077608,-1.0365,0.8791,0.2475,24.46,17.18,-1.4,
17719,1661611077608,-0.8739,0.6624,0.1171,26.85,15.89,0.98,
17720,1661611077608,-1.1141,0.6682,0.1186,32.57,21.07,-0.57,
17721,1661611077608,-0.9515,0.7859,-0.0538,38.57,11.0,1.97,
17722,1661611077608,-1.0507,0.4895,-0.0743,38.77,17.18,1.42,
17723,1661611077608,-0.8519,1.0188,0.0561,38.75,17.94,-1.86,
17724,1661611077608,-0.7592,0.533,-0.7715,39.67,3.12,-2.31,
17725,1661611077608,-0.8788,0.4539,-0.5377,39.85,10.74,-7.04,
17726,1661611077608,-0.8817,0.8298,0.1093,44.77,2.95,-8.78,
17727,1661611077608,-0.8598,0.4255,-0.4708,46.46,0.16,-9.33,
17728,1661611077608,-0.8339,0.6589,-0.356,46.96,0.42,-13.62,
17729,1661611077608,-0.7968,0.4612,0.0253,44.84,8.37,-15.8,
17730,1661611077608,-0.7318,0.2732,-0.2256,45.35,1.95,-14.89,
17731,1661611077608,-0.7426,0.3508,-0.5367,44.86,0.16,-17.27,
17732,1661611077608,-0.724,-0.012,-0.4009,51.34,8.8,-16.17,
17733,1661611077608,-0.7348,-0.1111,-0.1085,51.08,7.72,-18.26,
17734,1661611077608,-0.746,-0.0154,-0.5616,46.86,-10.92,-17.45,
17735,1661611077608,-0.747,-0.5095,-0.6973,43.85,-18.87,-12.06,
17736,1661611077608,-0.8519,-0.2288,-0.2051,41.16,-6.43,-6.59,
17737,1661611077608,-0.7767,-0.6736,-0.3746,37.85,-8.79,-3.49,
17738,1661611077608,-0.8646,-0.6472,-0.3252,34.65,-13.36,-4.13,
17739,1661611077608,-0.8593,-0.5354,-0.1104,38.46,-27.75,-5.69,
17740,1661611077608,-0.9306,-0.7468,-0.0084,34.85,-19.2,-2.13,
17741,1661611077608,-0.8656,-0.6697,-0.1934,27.26,-12.43,-2.57,
17742,1661611077624,-1.0092,-0.8274,-0.1382,27.17,-13.62,-2.04,
17743,1661611077624,-0.8754,-0.4607,-0.1148,22.17,-14.38,-2.94,
17744,1661611077624,-0.8656,-0.7605,-0.2774,24.58,-20.97,1.42,
17745,1661611077624,-0.975,-0.5818,-0.1998,19.05,-21.83,-0.76,
17746,1661611077624,-0.973,-0.5408,-0.1959,18.17,-33.15,2.8,
17747,1661611077624,-1.0507,-0.5945,0.144,10.77,-20.47,3.53,
17748,1661611077624,-0.9882,-0.3176,0.1811,5.98,-30.11,1.52,
17749,1661611077624,-0.9008,-0.5305,-0.3126,5.98,-21.83,4.72,
17750,1661611077624,-1.0292,-0.3718,0.624,7.78,-9.73,0.71,
17751,1661611077624,-1.1224,-0.344,0.2851,9.38,-16.67,3.8,
17752,1661611077624,-1.1849,-0.6467,0.0331,8.07,-15.14,7.18,
17753,1661611077624,-1.162,-0.3577,0.3588,2.36,-8.72,0.62,
17754,1661611077624,-1.1962,-0.199,0.3906,0.07,-6.26,-1.49,
17755,1661611077624,-1.077,-0.4915,0.0131,-3.44,-10.23,0.98,
17756,1661611077624,-1.2665,0.0124,0.4008,-0.92,-5.33,0.89,
17757,1661611077624,-1.1078,-0.3811,0.0917,1.58,-14.71,5.99,
17758,1661611077624,-1.2611,-0.0706,0.2592,1.26,-17.77,7.63,
17759,1661611077624,-1.2763,0.1873,0.7456,-2.61,-2.97,6.72,
17760,1661611077624,-1.1713,-0.1194,0.5493,-3.91,-6.93,3.62,
17761,1661611077624,-1.2196,0.239,0.1787,-1.64,2.12,0.98,
17762,1661611077624,-1.1161,0.2444,0.9262,1.46,6.85,1.26,
17763,1661611077624,-1.2377,0.1672,0.8847,7.56,8.88,0.71,
17764,1661611077624,-1.1264,0.5911,0.143,8.28,6.27,1.26,
17765,1661611077624,-1.1556,0.4641,0.2431,10.46,4.24,4.26,
17766,1661611077624,-1.3392,0.4836,0.6738,6.88,17.01,1.26,
17767,1661611077624,-1.2294,0.8928,0.413,5.89,5.75,1.7,
17768,1661611077624,-1.1146,0.5945,-0.1631,8.37,4.65,-0.48,
17769,1661611077624,-1.0263,1.053,0.4999,10.28,11.16,-2.04,
17770,1661611077624,-0.9784,0.9285,0.2133,17.18,2.62,-5.5,
17771,1661611077624,-1.0824,0.7209,0.0776,23.37,7.2,-1.58,
17772,1661611077624,-1.0619,0.927,0.2407,25.66,13.12,-3.58,
17773,1661611077624,-1.0848,0.8835,0.3295,24.58,25.46,-1.77,
17774,1661611077624,-1.079,0.8591,0.1186,26.36,29.86,-7.96,
17775,1661611077624,-0.9843,0.7869,0.0229,25.88,27.4,-8.33,
17776,1661611077624,-0.9325,0.6335,0.0063,29.87,23.17,-3.76,
17777,1661611077639,-0.954,0.7239,-0.1251,32.85,12.69,-9.33,
17778,1661611077639,-0.9721,0.6174,-0.2398,37.85,9.23,-7.78,
17779,1661611077639,-0.8988,0.4177,-0.2344,40.26,4.48,-3.67,
17780,1661611077639,-1.0004,0.6409,-0.0772,36.95,6.01,-5.32,
17781,1661611077639,-0.89,0.282,-0.1431,41.26,4.05,-5.05,
17782,1661611077639,-0.9608,0.3318,-0.0235,42.84,5.67,-3.21,
17783,1661611077639,-0.7572,0.446,0.1611,46.15,3.89,-1.12,
17784,1661611077639,-0.9613,0.2502,-0.2208,47.85,-0.51,-6.95,
17785,1661611077639,-0.9594,0.3938,-0.212,47.16,2.38,-7.04,
17786,1661611077639,-0.7933,0.0393,-0.0845,46.46,3.12,-9.42,
17787,1661611077639,-0.9056,0.239,0.1323,38.84,15.89,-9.06,
17788,1661611077639,-0.6874,0.6008,-0.4727,43.87,0.93,-9.15,
17789,1661611077639,-0.6605,-0.2654,-1.2916,49.14,-9.13,-8.78,
17790,1661611077639,-0.6791,0.2664,0.0375,46.66,-3.21,-11.88,
17791,1661611077639,-0.7802,0.2063,-0.2969,45.85,-12.78,-8.88,
17792,1661611077639,-0.6986,-0.2029,-1.2789,41.55,-17.17,-7.04,
17793,1661611077639,-0.8285,-0.095,-0.0787,38.75,-13.28,-4.77,
17794,1661611077639,-1.0458,-0.283,0.4926,42.26,-2.87,-12.16,
17795,1661611077639,-0.8539,-0.408,-0.9722,42.46,-21.66,-14.7,
17796,1661611077639,-0.9076,-0.7278,-0.086,37.07,-11.33,-7.96,
17797,1661611077639,-0.9989,-0.3303,0.6152,31.57,3.38,-11.52,
17798,1661611077639,-0.9589,-0.3792,-0.1998,31.37,-9.56,-12.06,
17799,1661611077650,-0.8056,-1.1941,-0.9039,27.66,-14.81,-6.59,
17800,1661611077650,-1.0414,-0.7698,0.3579,19.47,-19.37,-7.96,
17801,1661611077650,-1.0375,-0.5579,-0.2374,25.48,-33.24,-0.39,
17802,1661611077650,-0.9003,-1.0784,-0.7559,22.85,-29.61,3.44,
17803,1661611077650,-1.0204,-0.7732,0.3378,12.07,-27.49,5.8,
17804,1661611077650,-1.0971,-0.6594,0.1528,4.27,-37.8,6.17,
17805,1661611077650,-0.9706,-0.4934,0.1528,9.18,-24.19,6.26,
17806,1661611077650,-0.9613,-0.7922,0.3544,10.48,-13.88,8.82,
17807,1661611077650,-1.0556,-0.3958,-0.004,6.57,-15.81,7.27,
17808,1661611077650,-1.0663,-0.2136,0.1777,3.08,-12.94,7.63,
17809,1661611077650,-1.1332,-0.5251,0.7665,6.37,-5.83,8.46,
17810,1661611077650,-1.0907,-0.1184,-0.3023,6.66,-18.87,4.35,
17811,1661611077650,-1.0736,-0.1252,-0.2447,2.28,-16.58,4.63,
17812,1661611077650,-1.1889,-0.114,1.3549,-6.41,1.09,4.81,
17813,1661611077650,-1.1947,0.0745,0.8046,-3.12,-20.73,0.07,
17814,1661611077650,-1.0336,-0.0574,-0.8423,1.37,-24.62,2.25,
17815,1661611077650,-1.2011,0.2336,0.9506,4.57,2.21,-0.12,
17816,1661611077650,-1.244,0.1018,1.2514,3.77,9.13,4.08,
17817,1661611077650,-1.2172,-0.1428,-0.272,-0.54,1.28,0.98,
17818,1661611077650,-1.1903,0.2141,-0.0572,-4.81,14.05,-2.22,
17819,1661611077650,-1.246,0.4294,1.142,0.27,17.51,0.34,
17820,1661611077650,-1.1356,0.0886,0.2665,3.46,5.08,6.9,
17821,1661611077650,-1.1723,0.55,-0.2222,6.68,3.47,4.45,
17822,1661611077650,-1.161,0.4851,0.1303,9.06,10.07,9.45,
17823,1661611077650,-1.2094,0.3757,0.4077,7.37,-0.25,9.45,
17824,1661611077650,-1.2172,0.6667,0.1728,8.77,2.45,6.35,
17825,1661611077650,-1.1102,0.448,0.1264,9.47,2.54,7.27,
17826,1661611077650,-1.164,0.5627,0.2456,12.28,1.18,-0.03,
17827,1661611077650,-1.0448,0.8279,0.601,17.77,6.27,4.54,
17828,1661611077650,-1.2011,0.6589,0.5395,25.57,12.6,8.28,
17829,1661611077650,-0.974,0.7727,0.0541,26.76,16.25,1.33,
17830,1661611077650,-0.931,0.7258,0.0546,25.86,23.6,2.52,
17831,1661611077650,-1.1566,0.8796,0.6728,21.36,34.68,5.35,
17832,1661611077650,-0.9252,1.0095,-0.1329,22.06,14.12,2.8,
17833,1661611077650,-0.9804,0.6121,-0.5416,25.68,12.77,2.61,
17834,1661611077650,-1.0053,1.0178,0.1459,34.37,11.26,1.52,
17835,1661611077666,-0.9642,0.967,-0.0044,41.85,4.15,-2.76,
17836,1661611077666,-0.9481,0.7302,-0.3135,39.56,9.13,-0.57,
17837,1661611077666,-0.8715,0.8401,-0.3008,38.25,5.92,-4.22,
17838,1661611077666,-0.8998,0.6374,0.0527,38.36,10.83,-4.13,
17839,1661611077666,-0.8861,0.7131,0.0986,43.54,14.12,-8.05,
17840,1661611077666,-0.8617,0.5212,-0.2085,50.76,10.23,-5.96,
17841,1661611077666,-0.8383,0.1575,-0.3238,49.97,8.97,-8.69,
17842,1661611077666,-0.9223,0.5881,0.0859,47.05,11.5,-10.16,
17843,1661611077666,-0.8485,0.0881,-0.5294,49.76,2.12,-4.4,
17844,1661611077666,-0.7387,-0.0271,-0.6211,45.15,-0.94,-3.03,
17845,1661611077666,-0.7987,0.179,0.0043,46.17,1.78,-1.95,
17846,1661611077666,-0.6239,-0.3376,-0.6485,47.27,-12.35,-4.04,
17847,1661611077666,-0.7181,-0.2756,-0.6832,45.65,-13.52,-4.4,
17848,1661611077666,-0.7279,-0.2039,-0.2559,46.46,-9.39,-1.95,
17849,1661611077666,-0.9042,-0.3601,-0.3526,42.57,-9.39,-2.13,
17850,1661611077666,-0.8212,-0.322,-0.2325,39.65,-9.39,-0.76,
17851,1661611077674,-0.8973,-0.575,-0.064,33.96,-8.79,-9.15,
17852,1661611077674,-0.7455,-0.1287,-0.4258,38.77,-17.25,-11.52,
17853,1661611077674,-0.8129,-0.6033,-0.3521,39.55,-9.05,-4.59,
17854,1661611077674,-0.9511,-0.5374,0.2451,37.65,-6.86,-5.14,
17855,1661611077674,-0.8749,-0.4822,-0.6036,29.57,-28.84,-4.77,
17856,1661611077674,-0.9618,-0.5608,-0.0923,22.78,-21.14,-9.06,
17857,1661611077674,-0.893,-0.4182,-0.0308,25.77,-24.02,-9.24,
17858,1661611077674,-0.9623,-0.8748,-0.5469,26.26,-22.83,1.79,
17859,1661611077674,-1.0834,-0.3645,0.3974,21.68,-13.71,-3.86,
17860,1661611077674,-1.0951,-0.7122,0.1816,18.17,-22.92,1.97,
17861,1661611077674,-1.0922,-0.8884,-0.0894,13.87,-27.06,2.43,
17862,1661611077674,-1.0897,-0.385,-0.022,8.59,-18.18,3.26,
17863,1661611077674,-0.9852,-0.6648,0.185,8.48,-7.02,6.9,
17864,1661611077674,-0.973,-0.5989,0.0073,6.66,-9.22,4.45,
17865,1661611077674,-1.1146,-0.4099,0.062,5.98,-12.78,4.26,
17866,1661611077674,-1.1102,-0.7097,0.1298,1.38,-24.27,2.71,
17867,1661611077674,-1.225,-0.4529,0.249,-1.53,-23.52,2.98,
17868,1661611077674,-1.1703,-0.3059,0.2612,1.58,-19.63,6.9,
17869,1661611077674,-1.1288,-0.448,0.1381,0.56,-9.98,5.62,
17870,1661611077674,-1.16,0.051,0.7001,-0.74,2.02,6.35,
17871,1661611077674,-1.2308,-0.2473,0.4829,-0.13,-5.41,6.72,
17872,1661611077674,-1.3934,-0.2126,0.2104,0.09,-14.55,2.16,
17873,1661611077674,-1.205,0.1038,0.5488,1.38,-7.27,6.17,
17874,1661611077674,-1.4042,0.0627,0.9853,1.96,2.21,10.64,
17875,1661611077674,-1.1239,0.47,0.0634,-0.83,5.41,4.17,
17876,1661611077674,-1.0072,0.3557,-0.2925,2.59,1.35,6.26,
17877,1661611077674,-1.1371,0.2756,0.5043,2.47,13.96,10.73,
17878,1661611077674,-1.2914,0.8171,0.6386,6.18,-0.01,6.54,
17879,1661611077674,-1.1923,0.4582,-0.1319,8.86,0.68,3.07,
17880,1661611077674,-1.1576,0.4724,0.1298,8.37,6.43,2.52,
17881,1661611077674,-1.1952,0.8704,0.6943,8.16,9.47,-2.67,
17882,1661611077674,-1.181,0.7444,0.3413,12.86,6.1,0.71,
17883,1661611077674,-1.0707,0.7717,-0.0845,19.47,7.44,-2.04,
17884,1661611077674,-0.9647,0.7781,0.1748,23.36,19.04,-2.41,
17885,1661611077674,-1.1117,0.6824,0.5839,21.68,26.47,-5.05,
17886,1661611077690,-1.1508,0.8831,-0.0049,23.66,21.65,-6.24,
17887,1661611077690,-0.9384,0.531,-0.3003,24.17,13.62,-0.85,
17888,1661611077690,-1.1132,0.7659,0.3754,25.68,19.45,-2.94,
17889,1661611077690,-1.0302,0.6985,-0.0123,26.36,13.29,-3.49,
17890,1661611077690,-0.808,0.4172,-0.396,31.47,3.98,-3.49,
17891,1661611077690,-0.9262,0.5862,0.0991,36.95,9.81,-4.31,
17892,1661611077690,-0.9833,0.7078,0.5043,39.94,6.85,0.25,
17893,1661611077690,-1.0717,0.4744,-0.1866,38.97,7.36,2.43,
17894,1661611077690,-0.8265,0.4597,-0.1294,36.17,11.26,0.16,
17895,1661611077690,-0.7802,0.5466,0.1723,38.45,15.65,-4.4,
17896,1661611077690,-0.8666,0.7771,0.2197,43.06,15.15,-5.59,
17897,1661611077690,-0.7269,0.3347,-0.6368,51.05,1.35,-3.4,
17898,1661611077690,-0.9345,0.3904,-0.2466,46.84,6.77,-2.04,
17899,1661611077690,-0.9291,0.7292,-0.1827,44.25,-4.31,-7.14,
17900,1661611077690,-0.7684,0.3166,-0.5137,46.35,-0.34,-5.14,
17901,1661611077690,-0.6483,0.3464,-0.4463,44.77,5.5,-7.59,
17902,1661611077690,-0.6127,0.3616,-0.6646,43.77,-4.22,-7.32,
17903,1661611077690,-0.7553,0.1345,-0.3541,50.76,-8.63,-5.59,
17904,1661611077690,-0.788,0.1785,-0.086,54.94,-4.48,-6.95,
17905,1661611077690,-0.7108,-0.2527,-0.6607,50.55,-1.87,-7.04,
17906,1661611077690,-0.8095,-0.1282,-0.4146,41.47,-3.47,-9.79,
17907,1661611077690,-0.89,-0.3376,0.1015,41.16,-1.78,-9.88,
17908,1661611077690,-0.7826,-0.7317,-0.67,42.06,-21.14,-9.97,
17909,1661611077690,-0.8187,-0.575,-0.7754,39.46,-25.72,-8.69,
17910,1661611077690,-0.9857,-0.5408,0.0029,39.26,-10.56,-8.23,
17911,1661611077690,-0.9262,-0.9099,-0.0489,30.47,-16.24,-7.59,
17912,1661611077690,-0.8334,-0.7004,-0.6148,27.75,-24.53,-3.95,
17913,1661611077690,-0.9564,-0.9099,0.0776,25.26,-19.03,-3.4,
17914,1661611077690,-0.9877,-0.7502,-0.0162,21.37,-22.92,-3.31,
17915,1661611077690,-0.8661,-0.7932,-0.313,19.47,-24.62,-1.22,
17916,1661611077690,-1.0248,-0.6204,0.0078,22.66,-26.22,2.52,
17917,1661611077690,-0.9496,-0.6585,-0.0323,21.68,-30.19,5.25,
17918,1661611077690,-1.1723,-0.6702,0.413,8.36,-20.04,7.18,
17919,1661611077690,-1.0116,-0.2585,-0.0655,3.26,-23.69,3.07,
17920,1661611077705,-1.0433,-0.5955,-0.1299,8.28,-25.12,5.09,
17921,1661611077705,-1.0263,-0.5139,0.3354,12.78,-19.63,1.79,
17922,1661611077705,-1.0868,-0.2449,0.4248,10.27,-20.64,5.89,
17923,1661611077705,-1.1395,-0.3904,-0.0596,4.28,-16.48,4.63,
17924,1661611077705,-1.2103,-0.1106,0.2084,0.99,-14.12,3.99,
17925,1661611077708,-1.2152,-0.2742,0.7202,0.48,-1.61,4.81,
17926,1661611077708,-1.1635,-0.1008,0.2065,-0.0,-2.95,4.9,
17927,1661611077708,-1.1303,-0.0696,-0.1124,4.36,-3.47,4.26,
17928,1661611077708,-1.1698,-0.3235,0.3789,4.09,1.35,6.63,
17929,1661611077708,-1.2723,0.0188,0.7578,0.18,3.12,2.43,
17930,1661611077708,-1.2006,-0.0476,0.1186,-1.01,-2.97,4.99,
17931,1661611077708,-1.2001,-0.1169,0.2539,-0.81,-3.97,4.99,
17932,1661611077708,-1.3319,0.2058,0.6113,-2.23,2.95,7.73,
17933,1661611077708,-1.1434,0.1814,0.5078,1.57,1.69,11.1,
17934,1661611077708,-1.2172,0.1306,0.1206,5.78,-1.52,10.18,
17935,1661611077708,-1.0873,0.5437,0.6352,9.27,11.0,14.01,
17936,1661611077708,-1.0453,0.5227,0.58,8.27,2.71,11.83,
17937,1661611077708,-1.2875,0.6013,0.3232,6.88,7.94,4.35,
17938,1661611077708,-1.0805,0.6589,0.4536,7.76,8.04,6.99,
17939,1661611077708,-1.1405,0.5466,0.309,10.97,2.88,-1.58,
17940,1661611077708,-1.0419,0.9792,0.3837,16.26,11.42,1.26,
17941,1661611077708,-0.9506,0.9978,0.3081,22.15,12.77,0.25,
17942,1661611077708,-0.9555,0.6135,-0.0298,24.78,14.38,-0.3,
17943,1661611077708,-1.0424,0.9949,0.309,24.39,13.71,-2.57,
17944,1661611077708,-1.1024,1.0198,0.5087,23.57,17.59,-6.68,
17945,1661611077708,-0.9481,0.9309,0.039,23.88,7.87,-9.7,
17946,1661611077708,-0.8524,0.8831,-0.2525,25.75,15.48,-7.41,
17947,1661611077708,-1.0643,0.9109,0.3832,29.48,22.5,-10.78,
17948,1661611077708,-0.9935,0.7961,-0.3589,38.95,10.32,-8.14,
17949,1661611077708,-0.892,0.5476,-0.2916,41.85,17.51,-8.42,
17950,1661611077708,-0.9921,0.7297,0.1289,37.65,19.71,-8.23,
17951,1661611077708,-1.0116,0.6687,-0.148,39.15,10.66,-8.51,
17952,1661611077708,-0.8475,0.2864,-0.4976,44.26,5.24,-9.7,
17953,1661611077708,-0.9266,0.4475,0.0502,47.45,11.5,-9.7,
17954,1661611077708,-0.8036,0.2727,-0.314,46.95,-2.61,-2.67,
17955,1661611077708,-0.9091,0.175,-0.2569,43.85,-2.03,-8.33,
17956,1661611077708,-0.9867,0.0774,0.1752,47.36,1.86,-6.14,
17957,1661611077708,-0.8153,-0.0271,-0.0752,45.16,-7.02,-6.5,
17958,1661611077708,-0.8485,0.2913,-0.0723,42.05,6.34,-10.87,
17959,1661611077708,-0.5873,0.0164,-0.0259,44.55,2.28,-8.14,
17960,1661611077724,-0.6981,-0.2029,-0.94,46.06,-3.3,-4.5,
17961,1661611077724,-0.6239,0.0896,-0.4615,47.05,-1.61,-6.68,
17962,1661611077724,-0.8578,-0.1355,0.0742,44.55,0.76,-3.67,
17963,1661611077724,-0.6766,-0.0222,-1.1939,40.57,-14.29,-9.42,
17964,1661611077724,-0.7802,-0.3884,-0.8858,39.65,-25.29,-4.04,
17965,1661611077724,-0.89,-0.0183,0.601,37.75,-4.64,-7.59,
17966,1661611077724,-0.849,-0.116,-0.0323,42.55,-27.15,-6.42,
17967,1661611077724,-0.7709,-0.7654,-1.0923,38.77,-22.33,-5.14,
17968,1661611077724,-0.9013,-0.2107,0.6254,28.06,-12.59,-4.04,
17969,1661611077724,-1.0223,-0.6213,0.2846,32.56,-17.93,-1.03,
17970,1661611077724,-0.9179,-0.8293,-0.4898,30.85,-10.99,-2.76,
17971,1661611077724,-0.9618,-0.6116,0.2299,25.97,-6.26,-0.85,
17972,1661611077724,-0.9628,-0.8816,-0.0308,15.67,-17.6,1.7,
17973,1661611077724,-1.0155,-0.6243,-0.4415,15.58,-25.79,-1.03,
17974,1661611077724,-1.0243,-0.9602,-0.1636,19.16,-26.05,0.16,
17975,1661611077724,-1.1141,-0.595,0.0566,9.58,-26.65,-2.57,
17976,1661611077724,-1.0692,-0.5916,-0.0611,6.07,-27.58,-0.85,
17977,1661611077724,-0.851,-0.8333,0.0146,5.18,-24.95,1.61,
17978,1661611077724,-1.0082,-0.4675,0.1894,7.56,-26.48,1.79,
17979,1661611077724,-1.0746,-0.5422,0.2177,5.78,-28.33,3.9,
17980,1661611077724,-1.3344,-0.4788,0.6054,4.79,-11.25,3.53,
17981,1661611077724,-1.1513,-0.177,0.3764,3.06,-6.67,4.54,
17982,1661611077724,-1.2943,-0.3093,0.2973,2.27,-3.13,7.36,
17983,1661611077724,-1.2338,-0.1062,0.6611,-1.22,4.05,8.18,
17984,1661611077724,-1.164,-0.0256,0.4204,1.77,-7.1,7.54,
17985,1661611077724,-1.2045,-0.1414,-0.0923,2.07,-8.37,6.08,
17986,1661611077724,-1.2543,0.3777,0.6025,-0.32,-9.89,6.81,
17987,1661611077724,-1.2377,0.2126,0.7954,-1.91,-3.21,9.1,
17988,1661611077724,-1.2015,0.0544,0.3388,-3.73,-3.64,5.89,
17989,1661611077724,-1.2035,0.4319,0.1372,-1.03,5.67,7.36,
17990,1661611077724,-1.2606,0.3044,0.812,4.09,17.25,4.35,
17991,1661611077724,-1.2289,0.5295,0.3627,4.36,17.01,4.08,
17992,1661611077724,-1.1625,0.5237,0.1132,9.69,15.82,2.52,
17993,1661611077724,-1.1893,0.3708,0.3242,9.08,10.49,4.72,
17994,1661611077724,-1.1889,0.7444,0.3857,8.57,11.33,1.26,
17995,1661611077739,-1.1552,0.6785,0.145,11.58,7.2,0.8,
17996,1661611077739,-1.0595,0.4299,-0.0767,11.26,10.83,0.62,
17997,1661611077739,-1.1952,0.8655,0.2866,15.16,11.09,-1.4,
17998,1661611077739,-0.9867,0.4651,0.1362,22.26,6.34,0.8,
17999,1661611077739,-1.122,0.6628,0.3037,25.17,5.5,-3.76,
18000,1661611077739,-1.1141,0.7903,0.4511,25.68,9.97,-3.21,
18001,1661611077739,-1.0004,0.6345,0.3022,20.85,6.34,-0.57,
18002,1661611077739,-0.9789,0.8831,0.2514,22.66,15.73,-8.14,
18003,1661611077739,-0.8056,0.7126,0.2036,28.16,19.37,-4.4,
18004,1661611077739,-0.9735,0.7727,0.0253,31.96,25.13,-3.12,
18005,1661611077739,-0.9598,0.9397,-0.1363,36.45,11.16,-6.05,
18006,1661611077739,-0.9711,0.6155,-0.085,38.46,13.53,-7.78,
18007,1661611077739,-0.8168,0.9363,0.0292,39.56,12.93,-10.87,
18008,1661611077739,-0.7435,0.6643,-0.9175,45.16,1.44,-10.34,
18009,1661611077739,-0.8163,0.657,0.06,42.64,15.73,-7.04,
18010,1661611077739,-0.8993,0.7732,-0.0201,42.25,0.85,-9.79,
18011,1661611077739,-0.8285,0.4753,-0.4444,44.95,-0.25,-8.05,
18012,1661611077739,-0.8685,0.4797,-0.2642,50.64,6.43,-14.25,
18013,1661611077739,-0.8515,0.5168,0.1669,50.24,11.16,-10.34,
18014,1661611077739,-0.8129,0.1531,-0.2989,45.16,3.05,-12.16,
18015,1661611077739,-0.7186,0.283,-0.628,45.25,6.01,-8.78,
18016,1661611077739,-0.7225,-0.1785,-0.3702,49.27,5.41,-7.23,
18017,1661611077739,-0.7196,-0.0242,-0.3306,49.25,7.44,-8.51,
18018,1661611077739,-0.7597,0.1179,-0.4649,47.07,-5.07,-8.51,
18019,1661611077739,-0.7186,-0.4954,-0.7393,43.36,-22.16,-9.15,
18020,1661611077739,-0.8427,-0.4319,-0.4703,39.85,-22.92,-10.07,
18021,1661611077739,-0.8641,-0.4338,-0.0289,36.28,-9.45,-15.07,
18022,1661611077739,-0.871,-0.6077,-0.3057,36.45,-13.78,-11.42,
18023,1661611077739,-0.8417,-0.4954,-0.358,36.05,-24.79,-8.6,
18024,1661611077739,-0.9315,-0.6521,0.436,34.77,-10.75,-4.22,
18025,1661611077739,-0.8729,-0.5764,-0.1192,32.25,-16.91,-3.67,
18026,1661611077739,-0.872,-0.8279,-0.4649,26.26,-12.35,0.98,
18027,1661611077755,-0.8822,-0.3704,0.3769,24.47,-7.36,-2.94,
18028,1661611077755,-0.8397,-0.6873,-0.6172,26.58,-27.49,2.98,
18029,1661611077755,-0.9794,-0.7703,-0.4444,22.08,-25.72,5.44,
18030,1661611077755,-1.0687,-0.4226,0.1777,17.16,-40.26,5.71,
18031,1661611077755,-1.1303,-0.552,0.1674,15.67,-26.3,6.26,
18032,1661611077757,-1.0482,-0.4392,0.0551,9.87,-25.79,2.06,
18033,1661611077757,-0.9896,-0.5452,-0.0499,6.98,-18.53,6.26,
18034,1661611077757,-1.0692,-0.4143,0.6474,3.99,-12.07,6.35,
18035,1661611077757,-1.1537,-0.3303,0.1933,11.49,-14.29,5.62,
18036,1661611077757,-1.0966,-0.7561,0.0322,9.98,-5.93,8.82,
18037,1661611077757,-1.2084,-0.2459,0.4936,0.87,-2.54,6.54,
18038,1661611077757,-1.247,-0.0662,0.3471,-4.11,-3.04,2.8,
18039,1661611077757,-1.0785,-0.5081,-0.1236,-3.12,-11.68,6.72,
18040,1661611077757,-1.2225,-0.1814,0.2919,-2.12,-9.73,4.17,
18041,1661611077757,-1.1473,-0.1716,0.2968,1.2,-20.88,9.36,
18042,1661611077757,-1.2836,-0.1858,0.185,1.78,-17.17,8.55,
18043,1661611077757,-1.1972,0.0447,0.914,-1.42,1.02,6.54,
18044,1661611077757,-1.1659,-0.073,0.7998,-2.11,-5.16,13.65,
18045,1661611077757,-1.3246,0.2078,0.3491,-4.03,2.38,8.46,
18046,1661611077757,-1.1493,0.2566,0.7631,3.28,7.2,14.38,
18047,1661611077757,-1.2924,0.1755,0.5512,5.06,8.04,11.92,
18048,1661611077757,-1.1503,0.5735,0.4033,6.57,9.73,6.54,
18049,1661611077757,-1.0516,0.5745,0.1298,9.67,8.37,5.71,
18050,1661611077757,-1.2157,0.4949,0.3286,7.38,8.97,6.81,
18051,1661611077757,-1.1815,0.7932,0.3271,4.16,5.5,1.79,
18052,1661611077757,-1.1034,0.7551,0.1606,6.98,6.85,4.35,
18053,1661611077757,-0.995,0.886,0.2622,10.28,14.29,1.26,
18054,1661611077757,-0.933,0.9241,0.2226,15.68,11.0,3.44,
18055,1661611077757,-1.0507,0.7507,0.2734,24.56,14.8,-1.95,
18056,1661611077757,-1.0712,0.904,0.3632,22.47,14.38,-2.85,
18057,1661611077757,-1.0053,0.8787,0.1606,23.48,19.04,-7.14,
18058,1661611077770,-1.0302,0.7913,0.249,23.77,22.84,-9.33,
18059,1661611077770,-1.0697,0.9172,0.0327,28.97,25.71,-8.78,
18060,1661611077770,-0.9813,0.7068,-0.1221,32.67,22.67,-4.95,
18061,1661611077770,-0.8549,0.5945,-0.2066,37.55,19.21,-7.96,
18062,1661611077770,-0.9984,0.7957,-0.0401,35.37,9.47,-8.14,
18063,1661611077770,-0.8568,0.3508,-0.377,37.15,-3.3,-7.23,
18064,1661611077770,-0.9862,0.49,-0.0445,41.16,5.08,-7.04,
18065,1661611077770,-0.893,0.3767,0.184,44.84,5.67,-6.24,
18066,1661611077770,-0.8993,0.4319,-0.0733,45.85,4.15,-0.94,
18067,1661611077770,-0.786,0.4929,0.0126,45.65,8.8,-1.22,
18068,1661611077770,-0.8568,0.2795,0.1391,44.35,13.62,-1.86,
18069,1661611077770,-0.9252,0.4436,-0.3521,49.05,3.05,-4.4,
18070,1661611077770,-0.7562,0.1384,-0.2603,47.45,-0.75,-6.59,
18071,1661611077770,-0.786,0.4744,0.4238,40.55,15.22,-8.33,
18072,1661611077770,-0.7113,0.6296,-0.3511,43.35,-3.13,-8.88,
18073,1661611077770,-0.5477,-0.1379,-1.7647,47.76,-3.71,-7.04,
18074,1661611077770,-0.6654,0.1912,0.2543,46.75,12.19,-8.23,
18075,1661611077770,-0.7973,0.2366,-0.2159,44.75,-18.27,-12.71,
18076,1661611077770,-0.723,-0.2449,-1.5967,45.54,-28.33,-11.52,
18077,1661611077770,-0.808,-0.0178,0.204,41.97,-5.24,-14.52,
18078,1661611077770,-0.9882,-0.3782,0.3471,38.07,-1.68,-6.33,
18079,1661611077770,-0.8324,-0.3001,-0.9014,37.94,-11.33,-10.34,
18080,1661611077770,-0.9144,-0.6834,-0.0123,40.05,-13.28,-6.24,
18081,1661611077770,-0.9413,-0.4729,0.4902,35.56,-10.32,-4.68,
18082,1661611077770,-0.8964,-0.5974,-0.6915,30.18,-17.51,-2.76,
18083,1661611077770,-0.8363,-1.1594,-0.3892,27.77,-10.06,-0.76,
18084,1661611077770,-1.1146,-0.5974,0.2319,21.77,-25.12,-7.23,
18085,1661611077770,-1.0663,-0.6082,-0.0005,21.95,-36.37,-5.05,
18086,1661611077770,-0.8871,-1.0437,-0.5191,20.46,-29.18,-2.04,
18087,1661611077770,-0.9374,-0.739,-0.0928,17.27,-21.49,-2.85,
18088,1661611077770,-1.0394,-0.6956,0.2558,12.17,-30.78,3.16,
18089,1661611077770,-1.0429,-0.4622,0.288,7.37,-24.95,2.16,
18090,1661611077770,-0.8886,-0.7732,-0.0494,9.5,-18.76,7.18,
18091,1661611077770,-1.1112,-0.4797,0.249,6.79,-10.49,1.42,
18092,1661611077785,-1.0658,-0.1721,0.5659,4.28,-8.79,3.26,
18093,1661611077785,-1.0048,-0.4705,0.3715,7.67,-12.09,0.89,
18094,1661611077785,-1.0404,-0.3293,-0.2203,5.28,-20.47,-2.22,
18095,1661611077785,-1.1454,-0.0403,0.019,3.37,-13.62,-0.39,
18096,1661611077785,-1.2694,-0.2004,1.0756,-1.44,2.95,4.54,
18097,1661611077785,-1.1503,0.0764,-0.0567,-1.83,-12.01,1.26,
18098,1661611077785,-1.1576,-0.0999,-0.2281,-0.81,-16.84,3.9,
18099,1661611077785,-1.288,0.2737,1.3076,1.89,2.62,4.08,
18100,1661611077785,-1.3334,0.1428,1.1601,4.27,0.68,4.72,
18101,1661611077785,-1.2885,-0.2932,-0.042,7.06,0.76,9.54,
18102,1661611077785,-1.2597,0.4407,0.4233,-0.0,16.67,-1.31,
18103,1661611077785,-1.2445,0.2014,0.8378,-3.51,19.04,5.71,
18104,1661611077785,-1.1351,-0.0115,0.4409,0.27,8.37,7.36,
18105,1661611077785,-1.2382,0.4582,-0.0684,5.96,3.55,3.71,
18106,1661611077785,-1.0883,0.3025,0.2187,10.07,5.41,9.63,
18107,1661611077785,-1.3075,0.552,0.4599,10.68,0.76,6.35,
18108,1661611077785,-1.2723,0.7498,0.5571,7.76,10.32,0.8,
18109,1661611077785,-1.0834,0.3689,0.1704,7.96,0.09,1.16,
18110,1661611077785,-1.0629,0.7834,0.1538,7.37,4.98,-6.59,
18111,1661611077785,-1.0712,0.9856,0.6704,14.96,13.53,-1.03,
18112,1661611077785,-1.205,0.6731,0.7236,25.28,11.09,-3.58,
18113,1661611077785,-0.9789,0.8435,-0.1866,27.36,11.67,-4.31,
18114,1661611077785,-1.0424,0.741,0.2851,27.86,22.07,-2.31,
18115,1661611077785,-1.0643,1.1013,0.7441,22.66,31.29,-6.59,
18116,1661611077785,-0.8134,0.8806,-0.8248,26.65,6.77,-3.03,
18117,1661611077785,-0.8939,0.6619,-0.771,28.16,15.89,-3.76,
18118,1661611077785,-0.9735,1.0808,0.4829,33.06,9.39,-5.5,
18119,1661611077785,-0.9374,0.8123,-0.1851,40.65,2.62,-7.14,
18120,1661611077785,-0.8305,0.7419,-0.3043,40.29,9.49,-9.15,
18121,1661611077785,-0.8959,0.8342,-0.0704,41.67,8.2,-12.06,
18122,1661611077785,-0.9891,0.5222,-0.0079,38.56,11.16,-10.6,
18123,1661611077785,-0.9198,0.6199,-0.0333,44.37,14.12,-4.5,
18124,1661611077785,-0.827,0.4021,-0.1666,52.04,7.87,-0.94,
18125,1661611077785,-0.8241,0.177,-0.4146,49.27,1.44,-3.95,
18126,1661611077785,-0.8998,0.6394,0.04,46.75,10.23,-4.04,
18127,1661611077785,-0.7865,-0.176,-0.5225,51.05,1.61,-2.57,
18128,1661611077801,-0.768,0.0398,-0.7144,47.16,-2.97,-5.05,
18129,1661611077801,-0.788,0.1121,0.1279,46.55,-3.3,-2.85,
18130,1661611077801,-0.6723,-0.2288,0.0043,50.46,-8.63,-0.57,
18131,1661611077801,-0.6801,-0.2107,-0.8785,47.74,-13.62,-0.12,
18132,1661611077801,-0.6669,-0.2175,-0.296,42.55,-1.27,2.25,
18133,1661611077801,-0.9652,-0.2571,0.1645,39.26,0.09,0.62,
18134,1661611077801,-0.7509,-0.4265,-0.7584,41.07,-15.48,1.88,
18135,1661611077801,-0.9169,-0.5134,-0.2232,36.77,-6.51,1.07,
18136,1661611077801,-0.7929,0.0124,-0.0333,35.37,-10.92,-5.59,
18137,1661611077801,-0.8309,-0.7522,-0.7325,37.17,-20.13,-1.22,
18138,1661611077801,-0.8285,-0.4246,0.0478,33.05,-7.96,-7.87,
18139,1661611077801,-0.8978,-0.2634,0.0224,31.28,-21.49,-2.67,
18140,1661611077801,-0.9784,-0.6033,-0.3321,25.77,-26.72,-4.86,
18141,1661611077801,-0.8681,-0.4836,-0.1382,25.37,-29.52,-8.97,
18142,1661611077801,-0.9379,-0.7498,-0.1431,22.17,-19.8,-6.59,
18143,1661611077801,-1.0131,-0.4988,0.1518,21.66,-12.94,-0.94,
18144,1661611077801,-1.0482,-0.6834,0.0405,19.57,-19.96,1.16,
18145,1661611077801,-1.0346,-0.844,0.0302,14.96,-25.2,1.7,
18146,1661611077801,-1.1024,-0.3528,0.0302,8.27,-23.93,-0.39,
18147,1661611077801,-0.9642,-0.8186,0.0434,6.37,-12.94,4.63,
18148,1661611077801,-1.0184,-0.5222,0.1162,4.88,-9.98,5.25,
18149,1661611077801,-1.099,-0.3445,0.0664,6.88,-15.98,6.54,
18150,1661611077801,-1.0468,-0.7161,0.0263,5.76,-23.43,4.9,
18151,1661611077801,-1.225,-0.322,0.5346,0.68,-20.3,2.52,
18152,1661611077801,-1.0663,-0.3674,0.2465,1.87,-18.61,5.62,
18153,1661611077801,-1.3046,-0.1584,0.1865,0.07,-10.15,7.73,
18154,1661611077801,-1.08,0.1018,0.6674,0.97,14.05,7.18,
18155,1661611077801,-1.1347,-0.238,0.685,1.08,6.27,9.72,
18156,1661611077801,-1.1708,-0.0251,0.0834,-2.72,-3.9,4.72,
18157,1661611077801,-1.2074,0.1785,0.9248,-0.92,-6.86,4.99,
18158,1661611077801,-1.309,0.0974,1.0556,-0.13,-2.54,4.54,
18159,1661611077801,-1.0853,0.365,0.0956,3.6,-5.32,7.63,
18160,1661611077801,-1.0062,0.3616,-0.0054,3.67,1.09,7.63,
18161,1661611077801,-1.2035,0.4685,1.0541,3.28,17.51,3.8,
18162,1661611077817,-1.2606,0.7322,0.7695,3.48,7.11,3.9,
18163,1661611077817,-1.1117,0.5549,-0.1343,5.96,10.74,1.88,
18164,1661611077817,-1.163,0.6531,0.4682,8.8,17.27,-1.77,
18165,1661611077817,-1.1786,0.7932,0.6655,12.87,16.25,0.71,
18166,1661611077817,-1.1786,0.6501,0.4257,13.06,11.42,-0.76,
18167,1661611077817,-1.0238,0.7415,-0.0049,13.87,13.62,-3.95,
18168,1661611077817,-1.0448,0.7541,0.2197,21.56,19.97,-2.67,
18169,1661611077817,-1.1,0.6101,0.4072,24.67,21.24,-6.5,
18170,1661611077817,-1.0912,0.8391,-0.0826,25.68,18.95,-5.05,
18171,1661611077817,-0.9179,0.4373,-0.2315,26.58,12.93,-2.31,
18172,1661611077817,-1.161,0.7883,0.4047,24.58,9.39,-5.41,
18173,1661611077817,-1.1483,0.7898,0.4355,26.85,10.83,-4.77,
18174,1661611077817,-0.9247,0.4495,-0.2974,33.75,-0.84,-4.95,
18175,1661611077817,-0.997,0.6726,0.0405,34.56,8.63,-3.4,
18176,1661611077817,-0.9916,0.6462,0.6147,36.66,16.66,-3.03,
18177,1661611077817,-0.9447,0.5745,-0.2569,38.86,11.76,-0.21,
18178,1661611077817,-0.8402,0.6038,-0.5206,38.46,4.15,-0.3,
18179,1661611077817,-0.9506,0.5378,0.1577,38.16,15.65,-0.12,
18180,1661611077817,-0.8661,0.8411,0.3373,42.96,12.86,-1.49,
18181,1661611077817,-0.7157,0.3044,-1.0562,47.54,-2.61,4.17,
18182,1661611077817,-0.8583,0.5442,-0.0953,42.77,10.66,-1.67,
18183,1661611077817,-0.9271,0.6682,0.0165,46.15,-0.17,-4.22,
18184,1661611077817,-0.7924,0.3928,-0.4585,45.76,3.31,-3.58,
18185,1661611077817,-0.6205,0.3328,-0.6075,46.35,-1.18,-6.5,
18186,1661611077817,-0.7108,0.3206,-0.4161,47.34,0.35,-8.05,
18187,1661611077817,-0.7723,0.1467,-0.2398,49.16,-2.2,-10.25,
18188,1661611077817,-0.7059,0.0608,-0.3936,51.34,1.28,-5.96,
18189,1661611077817,-0.7011,-0.3601,-0.7076,50.76,-1.1,-4.77,
18190,1661611077817,-0.8573,-0.1204,-0.3238,40.75,-3.13,-7.5,
18191,1661611077817,-0.8866,-0.5217,-0.1241,38.66,-12.78,-16.08,
18192,1661611077817,-0.8392,-0.7126,-0.6402,41.45,-22.83,-12.52,
18193,1661611077817,-0.9735,-0.4319,-0.2442,37.47,-13.71,-10.51,
18194,1661611077817,-0.8495,-0.822,0.2104,32.67,-11.16,-1.77,
18195,1661611077817,-0.9061,-0.7996,0.0375,31.95,-22.24,-2.41,
18196,1661611077817,-0.8407,-0.78,-0.42,28.26,-22.92,2.98,
18197,1661611077832,-1.0629,-0.8406,0.0834,20.66,-18.1,0.34,
18198,1661611077832,-0.9545,-0.655,0.0576,20.87,-17.42,0.52,
18199,1661611077832,-0.9389,-0.8596,-0.231,22.37,-20.73,1.97,
18200,1661611077832,-0.994,-0.387,-0.1236,23.36,-23.85,-0.94,
18201,1661611077832,-0.8666,-0.7141,-0.1124,16.87,-28.75,6.08,
18202,1661611077832,-1.0302,-0.5227,0.2387,6.27,-18.77,-1.31,
18203,1661611077832,-0.9696,-0.2893,-0.085,5.17,-30.37,-4.4,
18204,1661611077832,-1.1195,-0.6028,0.207,7.87,-25.29,-3.4,
18205,1661611077832,-1.0204,-0.3626,0.4692,8.36,-19.03,-4.13,
18206,1661611077832,-1.0604,-0.2532,0.2578,5.87,-14.29,-2.76,
18207,1661611077832,-1.1605,-0.3713,0.2934,2.36,-8.2,-1.86,
18208,1661611077832,-1.2055,-0.1687,0.3037,2.38,-6.51,-1.49,
18209,1661611077832,-1.2377,-0.4675,0.4536,0.88,2.45,1.26,
18210,1661611077832,-1.2396,0.054,0.3212,0.87,-2.61,3.53,
18211,1661611077832,-1.1654,0.0447,0.1274,2.47,-2.97,3.44,
18212,1661611077832,-1.0927,-0.4373,0.1445,1.9,-2.02,6.63,
18213,1661611077832,-1.2821,0.1462,0.6088,-2.81,-0.94,1.97,
18214,1661611077832,-1.1859,-0.1003,0.2094,0.97,-3.21,4.54,
18215,1661611077832,-1.1444,-0.2957,-0.0123,2.07,-8.46,0.34,
18216,1661611077832,-1.327,0.3113,0.6982,-1.01,4.05,-0.21,
18217,1661611077832,-1.1454,0.1667,0.7094,0.09,4.74,5.18,
18218,1661611077832,-1.2084,0.2971,0.121,3.08,1.02,3.8,
18219,1661611077832,-1.0678,0.5139,0.3471,7.67,14.63,7.09,
18220,1661611077832,-1.2045,0.49,0.725,8.57,11.0,10.37,
18221,1661611077832,-1.2245,0.7268,0.1831,8.48,9.13,1.26,
18222,1661611077832,-1.0756,0.5632,0.2797,10.57,8.63,7.09,
18223,1661611077832,-1.2352,0.5056,0.518,11.76,13.53,1.16,
18224,1661611077832,-1.101,1.1599,0.3383,15.77,11.16,-3.12,
18225,1661611077832,-0.9735,0.8274,-0.2676,19.88,10.32,-1.12,
18226,1661611077832,-0.9911,0.7844,0.4623,20.17,15.15,-4.4,
18227,1661611077832,-1.0214,1.0847,0.3623,21.05,14.46,-6.14,
18228,1661611077832,-1.122,0.9465,0.0029,27.95,13.87,-4.5,
18229,1661611077832,-0.9437,0.8943,-0.0767,28.26,20.81,-9.06,
18230,1661611077848,-0.9379,0.8997,0.2192,27.36,25.2,-9.7,
18231,1661611077848,-0.9677,0.8923,-0.0679,31.87,24.2,-9.06,
18232,1661611077848,-0.8529,0.6907,-0.4336,38.36,15.48,-7.59,
18233,1661611077848,-0.8256,0.4929,-0.0835,41.74,15.73,-7.59,
18234,1661611077848,-0.9188,0.6604,-0.0425,38.17,7.44,-11.61,
18235,1661611077848,-0.9935,0.5964,-0.3111,43.65,2.79,-8.42,
18236,1661611077848,-0.8226,0.1677,-0.2579,46.46,3.89,-11.7,
18237,1661611077848,-0.9765,0.4475,0.1889,45.85,6.34,-10.07,
18238,1661611077848,-0.7562,0.2527,-0.0816,45.67,-2.2,-5.96,
18239,1661611077848,-0.9608,0.1946,-0.0616,46.25,6.34,-8.14,
18240,1661611077848,-0.7958,-0.01,-0.0811,47.27,1.18,-7.78,
18241,1661611077848,-0.8754,0.0129,-0.1309,44.25,-0.51,-11.61,
18242,1661611077848,-0.7914,0.4309,0.1782,43.76,8.54,-10.69,
18243,1661611077848,-0.6488,-0.1604,-0.7911,48.15,-2.28,-5.69,
18244,1661611077848,-0.642,-0.0496,-0.8848,44.84,-0.17,-7.5,
18245,1661611077848,-0.7118,0.2039,0.0405,43.45,-1.68,-9.7,
18246,1661611077848,-0.7982,-0.2844,-0.7569,48.35,-13.02,-1.77,
18247,1661611077848,-0.6757,-0.1008,-1.3834,43.96,-27.15,-7.41,
18248,1661611077848,-0.8563,-0.2302,0.354,34.05,-7.86,-3.4,
18249,1661611077848,-0.8695,-0.1873,0.0322,39.06,-10.99,-9.88,
18250,1661611077848,-0.7933,-0.4553,-0.9278,41.76,-28.25,-5.14,
18251,1661611077848,-0.8573,-0.5803,-0.2027,30.57,-3.9,-6.24,
18252,1661611077848,-0.9965,-0.136,0.893,27.89,-7.25,-3.67,
18253,1661611077848,-0.9364,-0.9817,-0.6216,31.28,-13.36,-4.13,
18254,1661611077848,-0.9135,-0.7698,-0.1231,29.35,-2.87,-10.07,
18255,1661611077848,-1.0365,-0.5081,0.3334,19.18,-17.0,-8.69,
18256,1661611077848,-0.9061,-0.9251,-0.6265,20.98,-27.75,-7.04,
18257,1661611077848,-0.9657,-0.7507,-0.2364,17.36,-19.8,-5.5,
18258,1661611077848,-0.9808,-0.9119,-0.0616,14.87,-28.16,0.62,
18259,1661611077848,-1.1869,-0.5603,0.0151,6.16,-38.49,1.07,
18260,1661611077848,-0.9589,-0.7517,0.4873,7.37,-29.01,6.54,
18261,1661611077848,-0.9183,-0.7756,0.332,4.38,-27.91,1.88,
18262,1661611077848,-1.0682,-0.2952,-0.0337,5.17,-11.08,2.98,
18263,1661611077848,-1.0131,-0.5808,0.6738,1.46,-5.67,5.62,
18264,1661611077848,-1.1806,-0.3386,0.498,2.48,-6.86,3.71,
18265,1661611077864,-1.0736,-0.0911,-0.2344,3.78,-16.67,6.44,
18266,1661611077864,-1.3046,-0.2649,0.6718,2.67,-4.14,8.92,
18267,1661611077864,-1.1283,-0.0017,0.9155,2.86,1.61,7.27,
18268,1661611077864,-1.0492,-0.0183,-0.1783,3.08,-9.13,5.35,
18269,1661611077864,-1.1454,0.031,-0.0088,-3.83,-7.79,6.44,
18270,1661611077864,-1.2431,0.302,0.9628,-4.03,-4.48,4.72,
18271,1661611077864,-1.2055,-0.0383,0.353,1.46,-0.34,7.45,
18272,1661611077864,-1.1693,0.1526,0.0317,2.67,-0.42,8.55,
18273,1661611077864,-1.1615,0.4514,0.5771,3.37,17.42,7.63,
18274,1661611077864,-1.2806,0.1443,0.9731,3.17,16.15,4.63,
18275,1661611077864,-1.2142,0.5232,0.0156,2.79,12.93,5.8,
18276,1661611077864,-1.1395,0.5471,-0.0176,5.46,14.22,0.89,
18277,1661611077864,-1.1347,0.3508,0.4672,9.09,15.74,2.8,
18278,1661611077864,-1.2348,0.6829,0.3227,10.98,9.23,1.42,
18279,1661611077864,-1.0922,0.3801,-0.0533,10.16,8.37,4.35,
18280,1661611077864,-1.1381,0.4172,-0.0054,12.78,6.43,1.97,
18281,1661611077864,-1.1532,0.7932,0.4418,14.98,7.61,6.44,
18282,1661611077864,-1.0111,0.5461,0.3735,20.47,5.24,3.99,
18283,1661611077864,-1.0473,0.7122,0.2294,22.78,6.17,-0.67,
18284,1661611077864,-0.994,0.7156,0.3417,24.85,11.84,0.89,
18285,1661611077864,-1.2152,0.6892,0.5063,23.36,18.85,-2.76,
18286,1661611077864,-0.9945,0.9641,0.0219,26.76,21.31,-2.31,
18287,1661611077864,-0.9149,0.6829,-0.0894,27.4,20.4,-7.96,
18288,1661611077864,-0.9403,0.9226,0.2939,30.45,26.06,-8.23,
18289,1661611077864,-0.9735,0.9358,-0.1753,36.27,5.92,-6.68,
18290,1661611077864,-0.9408,0.6721,-0.521,41.15,13.29,-12.52,
18291,1661611077864,-0.8324,0.9177,0.0327,42.16,10.66,-5.5,
18292,1661611077864,-0.8305,0.6213,-0.5294,40.65,1.09,-8.6,
18293,1661611077864,-0.8187,0.7419,0.0268,37.85,11.33,-10.25,
18294,1661611077864,-0.8461,0.5627,0.0634,41.87,8.04,-8.69,
18295,1661611077864,-0.8817,0.3518,-0.2335,47.36,5.24,-8.51,
18296,1661611077864,-0.8764,0.5999,-0.0845,49.25,10.57,-10.51,
18297,1661611077864,-0.7894,0.3132,0.0185,47.15,9.56,-9.79,
18298,1661611077864,-0.7494,0.0764,-0.4795,48.56,3.05,-10.87,
18299,1661611077864,-0.8002,0.262,-0.4112,48.85,8.13,-12.34,
18300,1661611077880,-0.7157,-0.2278,-0.4376,48.75,4.15,-7.5,
18301,1661611077880,-0.7225,-0.0022,-0.5294,43.16,-2.97,-11.79,
18302,1661611077880,-0.6566,-0.3074,-0.6876,44.17,-20.64,-11.97,
18303,1661611077880,-0.7738,-0.4373,-0.5137,46.57,-21.14,-7.78,
18304,1661611077880,-0.8558,-0.2322,-0.1753,42.77,-6.43,-11.97,
18305,1661611077880,-0.7987,-0.5408,-0.1128,36.17,-13.02,-5.14,
18306,1661611077880,-0.8676,-0.5125,-0.4922,35.08,-16.91,-11.52,
18307,1661611077880,-0.7748,-0.4973,-0.044,38.46,-13.71,-6.86,
18308,1661611077880,-0.9867,-0.7009,0.1772,30.18,-3.55,-4.59,
18309,1661611077880,-0.8397,-0.4968,-0.441,28.67,-13.02,-0.48,
18310,1661611077880,-1.0018,-0.7229,-0.126,27.46,-18.44,-0.94,
18311,1661611077880,-0.9096,-0.3347,-0.0259,26.07,-23.26,-1.77,
18312,1661611077880,-0.8842,-0.7683,-0.6294,20.15,-27.15,2.61,
18313,1661611077880,-0.9735,-0.5999,0.1831,17.07,-20.73,0.07,
18314,1661611077880,-0.9974,-0.4495,0.0483,16.46,-28.75,3.26,
18315,1661611077880,-1.0868,-0.6306,0.0688,13.38,-24.36,2.8,
18316,1661611077880,-1.0458,-0.4163,0.1064,11.06,-26.13,0.52,
18317,1661611077888,-1.0023,-0.5457,0.1411,8.79,-15.05,6.44,
18318,1661611077888,-1.1005,-0.5427,0.3818,8.79,-6.09,1.97,
18319,1661611077888,-1.1195,-0.3894,0.1791,6.48,-5.83,2.06,
18320,1661611077888,-1.078,-0.7727,-0.0386,1.78,-8.72,7.91,
18321,1661611077888,-1.2152,-0.1838,0.3793,-2.03,-6.09,3.62,
18322,1661611077888,-1.1845,-0.1072,0.3496,1.78,-16.74,5.18,
18323,1661611077888,-1.0355,-0.6628,-0.1431,0.58,-21.4,7.73,
18324,1661611077888,-1.2357,-0.1057,0.4716,-1.53,-3.64,4.72,
18325,1661611077888,-1.1644,-0.1248,0.5815,-2.02,-2.8,5.99,
18326,1661611077888,-1.2426,-0.1287,0.1264,-1.73,-7.96,5.25,
18327,1661611077888,-1.1859,-0.0095,0.7773,-1.44,-0.75,5.89,
18328,1661611077888,-1.1718,-0.0012,0.9765,-0.23,-1.94,3.53,
18329,1661611077888,-1.2621,0.3191,0.4282,5.58,-0.17,5.18,
18330,1661611077888,-1.0331,0.1687,0.1967,7.38,7.44,10.55,
18331,1661611077888,-1.2719,0.4241,0.9028,3.0,21.75,5.18,
18332,1661611077888,-1.1703,0.7537,0.6538,2.86,17.01,6.54,
18333,1661611077888,-1.0746,0.5129,-0.3091,5.38,8.88,8.73,
18334,1661611077888,-1.142,0.5906,0.5185,6.28,11.76,1.07,
18335,1661611077888,-1.1889,0.8518,0.6557,9.06,-3.3,2.25,
18336,1661611077888,-1.1845,0.761,0.2436,11.97,-8.12,-1.03,
18337,1661611077888,-1.0634,0.8303,0.121,17.48,-1.1,-7.04,
18338,1661611077888,-1.0975,0.8679,0.6918,19.37,23.01,-2.85,
18339,1661611077888,-1.1473,0.9221,0.3203,21.95,24.7,-5.23,
18340,1661611077888,-0.9706,0.8523,-0.1793,22.26,28.16,-4.5,
18341,1661611077888,-0.9848,0.6716,0.2592,24.47,30.12,-6.59,
18342,1661611077888,-1.036,0.8376,0.2866,27.26,20.98,-5.14,
18343,1661611077888,-1.0648,0.866,-0.2442,31.55,8.71,-8.23,
18344,1661611077888,-0.8182,0.4617,-0.397,30.16,5.24,-6.24,
18345,1661611077888,-1.0101,0.7161,-0.0147,31.75,8.3,-3.95,
18346,1661611077888,-0.8856,0.5315,-0.2408,39.96,5.08,-3.67,
18347,1661611077888,-0.9071,0.3933,-0.3028,42.96,8.37,-1.58,
18348,1661611077888,-0.9921,0.4582,0.1752,39.36,7.87,-2.5,
18349,1661611077888,-0.9408,0.4416,0.1196,40.46,3.98,-5.59,
18350,1661611077888,-0.8685,0.5403,0.1586,43.27,12.93,-5.96,
18351,1661611077888,-0.7416,0.1677,-0.0127,46.66,14.22,-2.31,
18352,1661611077904,-0.954,0.3635,-0.3531,40.97,9.39,-7.5,
18353,1661611077904,-0.8832,0.5491,-0.4205,42.95,-0.59,-2.94,
18354,1661611077904,-0.7997,0.2078,0.0073,43.85,11.33,-0.85,
18355,1661611077904,-0.7138,0.3884,-0.2862,46.84,5.08,-6.68,
18356,1661611077904,-0.6268,0.1619,-1.4332,46.37,-13.62,-4.95,
18357,1661611077904,-0.7367,0.1643,-0.0333,41.06,-0.01,-9.33,
18358,1661611077904,-0.7592,0.2297,-0.1392,43.15,-10.82,-10.51,
18359,1661611077904,-0.7015,-0.2131,-1.2867,47.56,-12.69,-8.6,
18360,1661611077904,-0.7963,0.0457,-0.0572,45.96,-6.76,-10.51,
18361,1661611077904,-0.9291,-0.1047,0.4204,43.76,-6.0,-6.86,
18362,1661611077904,-0.9149,-0.5979,-0.3521,40.26,-16.74,-11.06,
18363,1661611077904,-0.8778,-0.3044,-0.6646,36.05,-11.59,-10.16,
18364,1661611077904,-0.9032,-0.637,0.1884,32.57,-2.61,-8.6,
18365,1661611077904,-0.9374,-0.6721,-0.2584,29.95,-14.38,-9.42,
18366,1661611077904,-0.8544,-0.7175,-0.4732,30.85,-18.27,-6.68,
18367,1661611077904,-0.9457,-1.0105,-0.23,29.75,-27.75,-0.67,
18368,1661611077904,-1.0619,-0.6355,0.121,19.57,-18.44,-2.85,
18369,1661611077904,-0.8964,-0.9876,-0.0689,15.19,-27.39,1.7,
18370,1661611077904,-0.8949,-0.7581,-0.3702,16.96,-32.31,1.16,
18371,1661611077904,-0.9931,-0.656,0.3022,15.06,-28.25,7.18,
18372,1661611077904,-1.1434,-0.6677,0.4565,10.86,-15.65,1.88,
18373,1661611077904,-0.9301,-0.6106,-0.3091,9.38,-24.69,4.17,
18374,1661611077904,-1.0355,-0.6868,-0.1377,7.78,-18.27,4.63,
18375,1661611077904,-1.1434,-0.2834,0.788,6.27,-11.42,-0.67,
18376,1661611077904,-1.0038,-0.3284,0.0156,6.97,-17.42,1.7,
18377,1661611077904,-1.0736,-0.4231,-0.1226,3.37,-13.88,3.53,
18378,1661611077904,-1.184,0.0217,0.3134,0.38,-21.83,2.89,
18379,1661611077917,-1.1806,-0.2293,0.6025,-0.54,-12.43,4.54,
18380,1661611077917,-1.1762,-0.0818,0.6113,1.26,-7.36,5.35,
18381,1661611077917,-1.1083,0.0564,-0.0215,1.26,-4.23,4.72,
18382,1661611077917,-1.2279,-0.1013,0.4374,-0.52,5.58,2.98,
18383,1661611077917,-1.2343,0.157,1.0087,-1.53,11.59,3.53,
18384,1661611077917,-1.1932,-0.1614,0.0776,0.29,3.72,10.0,
18385,1661611077917,-1.1395,-0.1155,-0.1021,1.08,1.18,9.91,
18386,1661611077917,-1.266,0.3542,0.6538,-1.12,13.45,9.82,
18387,1661611077917,-1.1664,0.0168,0.5141,0.68,9.81,9.82,
18388,1661611077917,-1.2557,0.2834,0.0122,2.48,9.23,6.81,
18389,1661611077917,-1.224,0.4333,0.1328,5.46,7.78,7.27,
18390,1661611077917,-0.9935,0.2473,0.4306,5.89,2.02,8.64,
18391,1661611077917,-1.2465,0.6047,0.5307,6.66,1.78,4.45,
18392,1661611077917,-1.1981,0.5579,0.4755,9.78,-0.08,5.71,
18393,1661611077917,-1.267,0.3953,0.0961,12.26,-8.53,4.9,
18394,1661611077917,-1.1239,0.9304,0.6464,16.98,19.54,3.71,
18395,1661611077917,-1.0599,0.6663,0.5248,18.58,21.4,9.63,
18396,1661611077917,-1.3153,0.592,0.1738,21.76,28.59,-0.85,
18397,1661611077917,-0.9882,0.928,0.0771,18.17,19.79,1.33,
18398,1661611077917,-1.1137,0.804,0.1953,20.37,19.79,-3.31,
18399,1661611077917,-0.9047,1.1526,-0.0401,25.28,11.93,-4.22,
18400,1661611077917,-0.8475,0.7253,-0.4385,29.86,5.92,-2.94,
18401,1661611077917,-0.933,1.0281,0.1748,28.96,19.79,-7.14,
18402,1661611077917,-0.9872,1.1843,0.0419,31.38,7.79,-6.14,
18403,1661611077917,-0.9354,0.6848,-0.3316,37.36,16.58,-5.59,
18404,1661611077917,-0.8861,0.8352,-0.0167,44.84,13.79,-5.87,
18405,1661611077917,-0.9291,0.7141,-0.1548,41.85,8.97,-7.78,
18406,1661611077917,-0.9291,0.4661,0.0507,41.97,14.63,-7.96,
18407,1661611077917,-0.9315,0.4724,-0.0904,43.67,10.83,-9.33,
18408,1661611077917,-0.869,0.2942,-0.2872,46.96,5.41,-4.4,
18409,1661611077917,-0.7767,0.3249,-0.2271,48.64,11.42,-7.5,
18410,1661611077917,-0.9154,0.2913,0.0156,49.65,8.97,-5.69,
18411,1661611077917,-0.7723,-0.2903,-0.7022,47.74,-6.0,-6.5,
18412,1661611077917,-0.8734,0.2415,-0.0958,44.57,-7.6,-5.32,
18413,1661611077917,-0.7147,-0.0208,0.0927,46.05,-2.97,0.16,
18414,1661611077917,-0.7308,-0.2654,-0.5157,48.24,-7.1,-2.31,
18415,1661611077933,-0.6249,-0.1218,-0.8985,40.65,-3.3,-1.12,
18416,1661611077933,-0.7509,-0.1604,0.2431,39.15,-0.84,-6.42,
18417,1661611077933,-0.8344,-0.1106,-0.3091,44.77,-15.39,-5.59,
18418,1661611077933,-0.6967,-0.4905,-1.2178,45.85,-17.77,-5.96,
18419,1661611077933,-0.913,-0.1599,0.2333,31.55,5.08,-5.23,
18420,1661611077933,-0.8583,-0.2053,-0.4151,35.75,-19.37,-5.23,
18421,1661611077933,-0.8231,-0.7932,-0.7852,38.05,-20.73,-0.12,
18422,1661611077933,-0.851,-0.1516,0.3925,30.77,-18.01,-9.42,
18423,1661611077933,-0.9286,-0.5344,-0.2335,26.36,-17.42,-3.21,
18424,1661611077933,-0.8803,-0.6438,-0.1666,29.86,-14.46,-5.32,
18425,1661611077933,-0.9603,-0.6604,0.2094,26.15,-17.34,-3.95,
18426,1661611077933,-1.0795,-0.6487,0.0898,16.96,-16.48,-7.32,
18427,1661611077933,-1.1054,-0.5203,0.0546,17.67,-19.28,-4.68,
18428,1661611077933,-1.0121,-0.9216,0.0063,15.56,-14.97,1.7,
18429,1661611077933,-0.9935,-0.7048,0.0546,14.86,-17.77,0.52,
18430,1661611077933,-1.1307,-0.4275,-0.0377,9.96,-18.1,0.25,
18431,1661611077933,-0.9306,-0.9954,-0.0738,5.28,-23.26,4.81,
18432,1661611077933,-1.0888,-0.4758,0.1093,1.48,-25.12,1.16,
18433,1661611077933,-1.0829,-0.5608,0.1401,3.87,-24.45,6.72,
18434,1661611077933,-1.1674,-0.6946,0.1948,2.57,-22.83,9.91,
18435,1661611077933,-1.1781,-0.3098,0.5693,0.87,-8.46,10.18,
18436,1661611077933,-0.9901,-0.3293,0.3105,-3.42,-14.97,7.45,
18437,1661611077933,-1.142,-0.0105,0.4057,-1.73,-7.27,7.73,
18438,1661611077933,-1.0795,-0.2219,0.6137,1.69,1.44,11.83,
18439,1661611077933,-1.2772,-0.0784,0.3823,-0.63,5.08,8.28,
18440,1661611077933,-1.1649,0.3596,0.4511,-4.73,8.2,9.01,
18441,1661611077933,-1.1317,0.1511,0.5375,-4.92,7.01,13.28,
18442,1661611077933,-1.0917,0.1643,0.1674,-1.33,3.89,9.91,
18443,1661611077933,-1.1244,0.5124,0.206,1.46,0.42,8.55,
18444,1661611077933,-1.12,0.3665,0.3979,3.98,4.65,9.45,
18445,1661611077933,-1.2333,0.531,0.6464,5.69,9.9,4.35,
18446,1661611077933,-1.1522,0.5681,0.2617,5.89,9.23,6.08,
18447,1661611077933,-1.2089,0.4343,0.2065,5.08,6.77,3.35,
18448,1661611077933,-1.181,0.6936,0.539,4.59,10.9,-0.94,
18449,1661611077933,-1.1312,0.6223,0.5175,9.67,14.89,-1.58,
18450,1661611077949,-1.1093,0.613,0.1303,11.67,15.56,-2.13,
18451,1661611077949,-1.1766,0.7659,0.0395,17.25,18.27,-3.67,
18452,1661611077949,-1.1259,0.5911,0.3105,18.87,21.74,-0.03,
18453,1661611077949,-1.0931,0.6399,0.3007,17.96,15.56,-3.21,
18454,1661611077949,-1.0433,0.8381,-0.2335,21.47,6.27,-3.58,
18455,1661611077949,-0.9286,0.529,-0.0391,21.16,7.11,-4.22,
18456,1661611077949,-1.0516,0.8967,0.5668,26.76,17.59,-6.05,
18457,1661611077949,-0.9725,0.7839,0.228,28.85,12.1,-6.77,
18458,1661611077949,-0.975,0.511,-0.4551,29.95,15.48,-7.59,
18459,1661611077949,-0.9999,0.822,0.414,32.47,25.97,-4.95,
18460,1661611077949,-1.0497,0.5793,0.2519,37.85,14.98,-8.42,
18461,1661611077949,-0.8139,0.7634,-0.5586,37.75,6.43,-11.97,
18462,1661611077949,-0.788,0.5442,-0.0289,43.15,9.06,-10.16,
18463,1661611077949,-1.0116,0.4875,0.3549,45.25,22.93,-9.33,
18464,1661611077949,-0.87,0.6936,-0.3736,42.57,4.74,-8.97,
18465,1661611077949,-0.8187,0.3215,-0.7486,40.55,3.98,-9.97,
18466,1661611077949,-0.9105,0.6423,0.27,43.35,4.82,-14.7,
18467,1661611077949,-0.8256,0.4109,-0.3975,46.46,-7.44,-10.87,
18468,1661611077949,-0.6727,0.2756,-0.3086,45.74,5.24,-14.7,
18469,1661611077949,-0.7216,0.2581,-0.4693,47.56,2.88,-14.08,
18470,1661611077949,-0.7943,0.0676,-0.5328,46.46,8.37,-13.44,
18471,1661611077949,-0.7733,0.0979,-0.0469,49.34,13.19,-12.89,
18472,1661611077949,-0.7294,-0.0862,-0.5079,46.86,-7.36,-10.25,
18473,1661611077949,-0.6972,-0.4202,-0.9195,41.26,-16.41,-7.41,
18474,1661611077949,-0.8563,-0.1814,-0.0616,38.66,-5.93,-9.79,
18475,1661611077949,-0.7929,-0.5891,-0.3492,41.67,-11.16,-5.59,
18476,1661611077949,-0.8422,-0.6467,-0.9024,38.65,-23.26,-5.23,
18477,1661611077949,-0.9183,-0.5139,0.1962,34.65,-18.01,-7.32,
18478,1661611077949,-0.9349,-0.7263,0.1137,28.76,-20.3,-6.59,
18479,1661611077949,-0.8412,-0.7332,-0.5337,31.66,-17.42,-3.49,
18480,1661611077949,-1.0565,-0.7761,0.3261,22.87,-6.86,-0.3,
18481,1661611077949,-0.952,-0.5501,0.0112,19.47,-15.74,-4.4,
18482,1661611077949,-0.8759,-0.7371,-0.4234,23.48,-26.98,0.89,
18483,1661611077949,-1.0912,-0.7419,-0.0679,20.47,-15.74,-3.76,
18484,1661611077965,-0.9984,-0.3113,-0.0167,13.77,-27.06,2.98,
18485,1661611077965,-0.9428,-0.8025,-0.3799,8.31,-23.32,2.61,
18486,1661611077965,-0.9706,-0.2634,0.3974,8.37,-20.73,2.25,
18487,1661611077965,-0.9511,-0.4656,-0.1338,8.77,-30.54,2.71,
18488,1661611077965,-1.0468,-0.4348,0.2626,8.08,-17.42,0.16,
18489,1661611077965,-1.1249,-0.2283,0.604,5.89,-13.95,-0.48,
18490,1661611077965,-1.1034,-0.4504,0.3642,3.77,-10.49,1.42,
18491,1661611077965,-1.1268,-0.3069,0.1503,1.57,-5.24,1.07,
18492,1661611077965,-1.1586,-0.1946,0.5327,1.06,4.98,1.88,
18493,1661611077965,-1.1576,-0.4348,0.3447,3.89,1.28,-1.12,
18494,1661611077965,-1.1893,0.0476,0.0014,-1.22,-6.34,1.42,
18495,1661611077965,-1.1806,-0.1023,0.1303,0.18,-6.26,3.71,
18496,1661611077965,-1.1322,-0.3489,0.3666,-1.33,-5.41,3.53,
18497,1661611077965,-1.2792,0.1716,0.3496,-1.51,-1.87,1.7,
18498,1661611077965,-1.1107,-0.2288,0.2206,-1.71,-3.55,9.63,
18499,1661611077965,-1.3026,0.1541,0.6015,-3.91,-0.84,4.26,
18500,1661611077965,-1.2382,0.3054,0.7319,0.27,4.31,10.0,
18501,1661611077965,-1.1884,-0.0295,0.4614,5.46,-0.25,9.27,
18502,1661611077965,-1.1937,0.4749,0.5971,5.37,9.56,5.25,
18503,1661611077965,-1.1669,0.3782,0.5297,5.87,5.17,7.09,
18504,1661611077965,-1.3431,0.3074,0.3837,5.18,4.82,3.44,
18505,1661611077965,-1.2157,0.7747,0.456,5.17,12.35,4.35,
18506,1661611077965,-1.1659,0.5154,0.2924,8.97,14.22,3.62,
18507,1661611077965,-1.184,0.5652,0.204,11.68,12.93,3.9,
18508,1661611077965,-1.0765,1.1052,0.1308,12.78,5.67,3.99,
18509,1661611077965,-1.1054,0.675,0.2558,19.07,10.23,1.07,
18510,1661611077965,-1.0087,0.9387,0.1689,20.98,13.12,-2.13,
18511,1661611077965,-1.0233,0.9827,0.1381,20.17,19.79,0.07,
18512,1661611077965,-1.0731,0.8884,0.2412,20.66,25.8,-3.86,
18513,1661611077965,-0.9725,0.9753,0.0009,26.27,20.3,-8.51,
18514,1661611077965,-0.952,0.761,-0.046,27.07,26.99,-3.49,
18515,1661611077965,-0.9428,0.8069,0.0517,33.95,33.84,-5.69,
18516,1661611077965,-0.9398,0.6868,-0.4722,36.66,22.33,-9.33,
18517,1661611077965,-0.8441,0.531,-0.4732,36.56,16.92,-9.79,
18518,1661611077965,-0.955,0.6501,-0.087,38.37,10.49,-8.78,
18519,1661611077965,-0.9364,0.4133,-0.3414,42.95,5.92,-8.05,
18520,1661611077980,-0.8578,0.2229,-0.4522,43.45,1.95,-4.68,
18521,1661611077980,-0.9428,0.446,0.3373,42.45,6.85,-12.61,
18522,1661611077980,-0.8505,0.241,-0.0015,43.06,-2.28,-9.24,
18523,1661611077980,-0.9681,0.1692,-0.379,45.16,-0.59,-10.51,
18524,1661611077980,-0.8661,0.0251,-0.2051,42.37,-0.42,-6.95,
18525,1661611077980,-0.9872,0.2078,0.4736,37.65,15.31,-11.79,
18526,1661611077980,-0.7304,0.425,-0.3311,45.15,6.34,-9.52,
18527,1661611077980,-0.6771,-0.2761,-1.2418,47.54,-2.28,-12.98,
18528,1661611077980,-0.6508,0.3103,0.1113,43.87,4.24,-11.52,
18529,1661611077980,-0.7177,0.0715,-0.4874,39.46,-10.23,-8.6,
18530,1661611077980,-0.6664,-0.1399,-1.3565,40.86,-18.35,-14.61,
18531,1661611077980,-0.8016,-0.0242,-0.3502,45.76,-18.35,-8.05,
18532,1661611077980,-0.974,-0.2376,0.144,40.65,-7.7,-9.61,
18533,1661611077980,-0.7831,-0.2727,-0.8511,35.26,-17.0,-8.05,
18534,1661611077980,-0.8163,-0.5291,-0.8335,32.65,-14.12,-6.95,
18535,1661611077980,-1.0214,-0.4382,0.4721,34.1,-4.22,-3.4,
18536,1661611077980,-0.9979,-0.3821,0.0458,34.07,-9.22,-3.21,
18537,1661611077980,-0.8861,-1.1233,-0.5289,27.66,-7.86,-1.77,
18538,1661611077980,-1.0414,-0.5535,0.2499,22.85,-13.45,-7.59,
18539,1661611077980,-1.0668,-0.7273,-0.0269,23.05,-26.39,-1.95,
18540,1661611077980,-0.913,-1.0403,-0.3892,20.06,-19.2,-1.95,
18541,1661611077980,-0.997,-0.7805,-0.1187,12.97,-22.41,-0.85,
18542,1661611077980,-1.0629,-0.9187,-0.0879,10.28,-35.53,2.89,
18543,1661611077980,-1.0878,-0.5847,0.4477,10.86,-26.13,1.42,
18544,1661611077980,-0.9066,-0.8313,0.1362,6.3,-18.85,4.17,
18545,1661611077980,-1.1127,-0.7371,-0.2076,0.07,-22.41,0.16,
18546,1661611077980,-1.0761,-0.3035,0.2504,3.06,-16.24,3.71,
18547,1661611077980,-1.1307,-0.7112,0.8276,4.48,-7.27,4.72,
18548,1661611077980,-1.121,-0.0979,0.0839,3.28,-12.01,-1.22,
18549,1661611077980,-1.0809,-0.0867,-0.1631,-0.02,-10.75,-0.3,
18550,1661611077980,-1.1649,-0.2156,0.9565,-2.72,0.35,1.16,
18551,1661611077980,-1.1703,0.1189,0.164,0.88,-10.75,3.35,
18552,1661611077996,-1.0946,0.0041,-0.3331,1.77,-16.74,1.97,
18553,1661611077996,-1.1307,0.2019,0.4511,2.57,-1.78,1.88,
18554,1661611077996,-1.1835,0.2302,1.0351,-1.41,11.18,-1.4,
18555,1661611077996,-1.2719,0.0217,0.0214,-4.23,3.21,0.34,
18556,1661611077996,-1.2084,0.2473,-0.0528,-4.83,9.39,-3.67,
18557,1661611077996,-1.1976,0.3503,0.9204,0.07,15.15,0.98,
18558,1661611077996,-1.2289,0.283,0.58,1.57,12.77,1.42,
18559,1661611077996,-1.1532,0.4973,-0.1959,3.57,6.17,-1.95,
18560,1661611077996,-1.1478,0.3362,-0.0084,7.56,13.03,5.99,
18561,1661611077996,-1.225,0.4221,0.7099,5.26,14.72,5.09,
18562,1661611077996,-1.2846,0.6594,0.2221,8.86,6.27,-0.57,
18563,1661611077996,-1.0502,0.3069,-0.1426,9.09,1.87,1.79,
18564,1661611077996,-1.1434,0.4768,0.2646,11.18,8.37,-0.3,
18565,1661611077996,-1.1552,0.7146,0.768,14.86,9.97,-1.31,
18566,1661611077996,-1.1449,0.5276,-0.0196,20.96,2.28,1.97,
18567,1661611077996,-0.9642,0.8293,0.4042,20.15,22.33,1.33,
18568,1661611077996,-1.0961,0.7834,0.5415,20.58,24.7,2.98,
18569,1661611077996,-1.1288,0.8127,0.102,16.77,23.51,-1.12,
18570,1661611077996,-0.8676,0.8567,-0.2984,21.36,15.22,-2.85,
18571,1661611077996,-1.0346,0.6838,0.2758,30.36,24.44,-2.94,
18572,1661611077996,-0.9784,1.1213,-0.3492,35.47,10.32,-7.87,
18573,1661611077996,-0.8681,0.6892,-0.545,38.46,12.69,-5.32,
18574,1661611077996,-0.8646,0.8474,0.2851,34.16,19.45,-6.77,
18575,1661611077996,-0.9193,0.9221,-0.1866,33.35,1.61,-7.87,
18576,1661611077996,-0.8524,0.6155,-0.6006,36.85,9.47,-7.69,
18577,1661611077996,-0.8778,0.7087,0.3505,43.76,13.03,-13.16,
18578,1661611077996,-0.9237,0.4451,-0.2901,44.86,3.55,-12.61,
18579,1661611077996,-0.8817,0.4597,-0.2481,43.25,6.51,-14.08,
18580,1661611077996,-0.8768,0.3088,0.1542,49.14,13.36,-12.43,
18581,1661611077996,-0.7836,-0.0598,-0.5547,49.56,7.78,-11.88,
18582,1661611077996,-0.7567,0.1067,-0.6695,44.25,-0.84,-15.16,
18583,1661611077996,-0.8158,0.1316,-0.1666,42.57,-1.52,-14.17,
18584,1661611077996,-0.6615,-0.2834,-0.4835,45.07,-10.49,-12.16,
18585,1661611077996,-0.7548,-0.0564,-0.7369,46.76,-7.79,-12.43,
18586,1661611078012,-0.7084,-0.3669,-0.2501,39.46,-7.96,-8.33,
18587,1661611078012,-0.8876,-0.4109,-0.337,36.56,-18.18,-5.69,
18588,1661611078012,-0.7313,-0.4636,-0.3365,37.65,-13.71,-3.03,
18589,1661611078012,-0.8681,-0.3543,-0.1641,35.15,-1.27,-0.94,
18590,1661611078012,-0.705,-0.3865,-0.4844,36.66,-10.75,-1.86,
18591,1661611078012,-0.9462,-0.7356,-0.0835,33.87,-12.78,-5.96,
18592,1661611078012,-0.8832,-0.2708,0.0546,30.85,-17.93,-11.06,
18593,1661611078012,-0.8915,-0.7205,-0.6324,29.35,-15.55,-2.57,
18594,1661611078012,-0.8842,-0.4441,0.0024,21.97,-10.66,-7.59,
18595,1661611078012,-0.8881,-0.5588,-0.0958,19.27,-26.13,-2.57,
18596,1661611078012,-1.0082,-0.7561,-0.2232,20.87,-28.84,-2.04,
18597,1661611078012,-1.0941,-0.4426,0.206,18.38,-26.89,-0.67,
18598,1661611078012,-1.1688,-0.6609,0.3745,13.79,-13.69,1.61,
18599,1661611078012,-1.0726,-0.5076,0.1572,11.07,-16.48,-0.57,
18600,1661611078012,-1.0282,-0.5398,-0.0689,5.96,-14.71,3.71,
18601,1661611078012,-1.1132,-0.6472,0.4374,3.96,-10.99,2.61,
18602,1661611078012,-1.1395,-0.3342,0.0634,4.57,-17.51,2.61,
18603,1661611078012,-1.0668,-0.7791,-0.21,7.47,-14.97,9.45,
18604,1661611078012,-1.2118,-0.3665,0.5288,-1.73,-10.49,5.53,
18605,1661611078012,-1.1937,-0.2786,0.0444,-4.23,-13.71,8.82,
18606,1661611078012,-1.0223,-0.5584,-0.2828,-1.03,-20.8,12.65,
18607,1661611078012,-1.1718,-0.1965,0.4873,-1.93,-5.76,9.54,
18608,1661611078012,-1.1698,-0.0461,0.8334,-2.32,-4.14,9.27,
18609,1661611078012,-1.287,-0.1458,-0.0132,-3.91,-8.89,12.2,
18610,1661611078012,-1.1737,-0.0164,0.8632,-1.73,4.4,6.26,
18611,1661611078012,-1.3837,0.0271,0.7631,1.28,2.02,10.09,
18612,1661611078012,-1.3099,0.2502,0.3061,-0.32,4.31,4.81,
18613,1661611078012,-1.0336,0.2249,0.1933,3.67,9.56,6.44,
18614,1661611078012,-1.2601,0.2195,0.6874,1.89,12.93,6.44,
18615,1661611078012,-1.2069,0.7444,0.1152,1.26,6.1,1.79,
18616,1661611078012,-1.1063,0.5486,-0.1329,5.08,3.47,11.28,
18617,1661611078026,-1.1918,0.4011,0.4726,1.77,14.63,5.44,
18618,1661611078026,-1.2152,0.8201,0.5463,2.38,6.85,3.9,
18619,1661611078026,-1.1752,0.7678,0.3124,5.69,11.33,4.9,
18620,1661611078026,-1.0878,0.7732,0.3159,10.98,16.49,2.06,
18621,1661611078026,-1.0062,0.7859,0.3964,15.56,21.91,3.35,
18622,1661611078026,-1.0863,0.7664,0.3515,17.38,21.24,-3.31,
18623,1661611078026,-1.0414,0.9563,-0.0284,18.46,21.74,-3.49,
18624,1661611078026,-0.9462,0.7595,-0.1431,23.07,23.51,0.07,
18625,1661611078026,-0.9428,0.6736,0.0156,21.95,27.32,-1.4,
18626,1661611078026,-1.0961,1.0168,0.1254,26.78,24.78,-4.5,
18627,1661611078026,-0.7777,0.3967,-0.4708,29.55,10.66,-3.76,
18628,1661611078026,-0.9647,0.592,-0.2759,32.96,8.3,-5.14,
18629,1661611078026,-0.9393,0.6799,0.4042,34.27,10.57,-9.24,
18630,1661611078026,-0.9115,0.4998,0.0898,39.56,4.65,-8.97,
18631,1661611078026,-0.91,0.4612,-0.4288,40.46,10.57,-8.6,
18632,1661611078026,-0.7826,0.4416,0.3061,38.27,12.93,-5.87,
18633,1661611078026,-0.8656,0.6052,0.3007,36.45,18.95,-7.23,
18634,1661611078026,-0.7196,0.2551,-0.6763,44.17,3.55,-1.12,
18635,1661611078026,-1.0048,0.2546,-0.0704,41.27,12.52,-1.49,
18636,1661611078026,-0.9003,0.6482,0.2036,38.37,-0.25,-7.96,
18637,1661611078026,-0.7846,0.3494,-0.461,41.59,-5.48,-6.59,
18638,1661611078026,-0.7089,0.3015,-0.3545,44.46,7.01,-8.05,
18639,1661611078026,-0.7284,0.3025,-0.8292,43.74,-7.02,-8.69,
18640,1661611078026,-0.7904,0.1995,-0.3477,41.29,-4.55,-11.88,
18641,1661611078026,-0.7953,0.282,-0.1319,43.76,-12.09,-13.71,
18642,1661611078026,-0.6752,-0.1902,-0.9693,46.25,-11.68,-13.35,
18643,1661611078026,-0.7582,0.0818,-0.1963,43.56,1.35,-11.52,
18644,1661611078026,-0.8285,-0.3635,0.1337,44.75,6.1,-9.52,
18645,1661611078026,-0.83,-0.6707,-0.4127,41.36,-12.59,-9.33,
18646,1661611078026,-0.8446,-0.3586,-0.7252,35.08,-22.66,-14.08,
18647,1661611078026,-0.8842,-0.4954,0.1425,36.27,-9.39,-4.4,
18648,1661611078026,-0.8505,-0.8313,-0.3135,31.29,-12.76,-2.5,
18649,1661611078026,-0.891,-0.6926,-0.3619,23.16,-11.25,-2.76,
18650,1661611078026,-0.9887,-0.9827,0.0126,23.28,-25.79,-4.13,
18651,1661611078042,-1.0805,-0.719,0.0707,24.06,-26.39,-2.76,
18652,1661611078042,-0.9472,-0.9729,-0.0289,19.18,-21.14,3.62,
18653,1661611078042,-1.0043,-0.6926,-0.1514,11.56,-22.66,-0.12,
18654,1661611078042,-0.9906,-0.7136,0.0571,14.68,-21.9,0.8,
18655,1661611078042,-1.2118,-0.863,0.4155,12.36,-16.84,-1.49,
18656,1661611078042,-1.0038,-0.323,-0.1031,8.08,-22.59,0.16,
18657,1661611078042,-0.9247,-0.5149,-0.2642,2.67,-20.38,2.89,
18658,1661611078042,-1.0624,-0.5227,0.3959,1.89,-13.88,3.8,
18659,1661611078042,-1.0385,-0.2532,0.3281,3.38,-15.65,-0.3,
18660,1661611078042,-1.1493,-0.4006,-0.0132,2.47,-12.43,0.52,
18661,1661611078042,-1.1596,0.0261,0.2416,-0.63,-14.04,-0.67,
18662,1661611078042,-1.1747,-0.2146,0.6127,-3.22,-5.16,4.45,
18663,1661611078042,-1.1473,0.0632,0.4169,-5.44,2.12,2.98,
18664,1661611078042,-1.1498,0.1194,0.0297,-0.81,-4.48,-2.04,
18665,1661611078042,-1.2255,-0.2629,0.2729,5.06,4.48,-1.67,
18666,1661611078042,-1.2626,0.052,0.85,2.68,13.19,3.26,
18667,1661611078049,-1.1923,-0.009,0.1186,-1.32,5.75,-0.21,
18668,1661611078049,-1.1371,-0.2141,-0.0958,-5.12,4.65,2.61,
18669,1661611078049,-1.2821,0.1291,0.5034,-6.32,8.54,0.16,
18670,1661611078049,-1.1879,0.1101,0.4267,-1.13,6.27,7.91,
18671,1661611078049,-1.183,0.1462,0.0766,-0.72,-0.34,8.82,
18672,1661611078049,-1.2543,0.3523,0.2934,2.68,9.73,3.44,
18673,1661611078049,-1.0863,0.2385,0.5986,4.09,6.34,4.9,
18674,1661611078049,-1.327,0.5281,0.4379,3.38,7.11,0.16,
18675,1661611078049,-1.1098,0.5671,0.6157,5.28,8.88,3.99,
18676,1661611078049,-1.1757,0.4753,0.4902,6.37,2.79,4.63,
18677,1661611078049,-1.0424,0.779,0.2163,7.88,8.13,5.09,
18678,1661611078049,-0.9525,0.7776,0.4902,12.08,8.8,4.9,
18679,1661611078049,-1.2279,0.6946,0.498,14.26,14.46,6.99,
18680,1661611078049,-0.9779,1.0173,-0.0142,19.7,18.12,-2.57,
18681,1661611078049,-0.9623,0.8811,-0.1338,18.37,22.58,-0.39,
18682,1661611078049,-0.9179,1.1428,0.4179,17.48,25.97,-2.13,
18683,1661611078049,-0.8334,0.8025,-0.4546,23.66,4.82,-2.57,
18684,1661611078049,-0.9003,0.9211,-0.0318,28.39,14.64,-7.78,
18685,1661611078049,-0.9032,1.1755,0.1962,33.95,18.44,-8.51,
18686,1661611078049,-0.9179,0.7483,-0.2784,36.56,19.21,-7.5,
18687,1661611078049,-0.8881,0.6858,-0.1646,35.95,20.9,-10.07,
18688,1661611078049,-0.9359,0.7078,-0.0616,39.85,15.39,-6.77,
18689,1661611078049,-0.89,0.3728,-0.3121,43.56,11.84,-7.14,
18690,1661611078049,-0.9159,0.4197,-0.2715,42.95,12.86,-5.96,
18691,1661611078049,-0.8261,0.156,-0.1983,40.25,6.85,-6.5,
18692,1661611078049,-0.7738,0.1931,-0.3165,44.75,1.02,-6.77,
18693,1661611078049,-1.0033,0.2712,-0.2237,45.27,-0.42,-6.24,
18694,1661611078049,-0.8275,-0.2898,-0.2862,41.76,-3.71,-2.04,
18695,1661611078049,-0.8407,0.1716,-0.0425,39.27,-2.97,-6.86,
18696,1661611078049,-0.5956,0.0564,0.0131,41.96,4.31,-1.77,
18697,1661611078049,-0.7509,-0.2585,-0.8702,42.45,-6.67,-6.86,
18698,1661611078049,-0.6459,0.0071,-0.4459,37.27,1.09,-12.43,
18699,1661611078049,-0.6786,-0.1262,-0.042,39.36,0.16,-9.24,
18700,1661611078064,-0.9164,-0.1497,-0.296,39.85,-13.02,-11.15,
18701,1661611078064,-0.6571,-0.2532,-1.2139,38.27,-20.3,-4.4,
18702,1661611078064,-0.8749,-0.2556,-0.2486,30.45,-5.57,-7.87,
18703,1661611078064,-0.7992,-0.0515,-0.189,36.66,-21.4,-12.06,
18704,1661611078064,-0.7636,-0.7532,-0.7652,38.46,-20.64,-10.16,
18705,1661611078064,-0.8558,-0.2185,0.2099,26.97,-16.15,-11.61,
18706,1661611078064,-0.9848,-0.5032,0.0122,26.06,-17.34,-9.7,
18707,1661611078064,-0.996,-0.7459,-0.0377,25.75,-10.4,-1.49,
18708,1661611078064,-0.9457,-0.6028,0.0341,21.16,-10.49,-1.03,
18709,1661611078064,-1.0673,-0.8279,-0.0113,20.06,-13.62,-0.21,
18710,1661611078064,-1.0956,-0.6394,-0.0088,16.78,-15.48,-0.03,
18711,1661611078064,-0.994,-1.0085,-0.3101,12.98,-16.91,5.18,
18712,1661611078064,-1.1361,-0.5696,-0.0411,3.17,-21.9,0.62,
18713,1661611078064,-1.121,-0.6575,0.1166,-0.23,-23.0,0.16,
18714,1661611078064,-0.911,-0.967,-0.043,1.87,-36.37,-1.95,
18715,1661611078064,-1.0639,-0.5501,-0.0494,1.8,-24.94,-3.31,
18716,1661611078064,-1.142,-0.4568,0.5185,-0.43,-16.48,3.62,
18717,1661611078064,-1.3114,-0.6179,0.3344,-4.92,-17.42,-0.48,
18718,1661611078064,-1.1195,-0.2122,0.5532,-4.12,-12.35,1.61,
18719,1661611078064,-1.2899,-0.2332,0.5356,-0.11,-7.96,-2.5,
18720,1661611078064,-1.08,0.0544,0.3793,-3.82,2.88,-4.22,
18721,1661611078064,-1.162,-0.1814,0.4003,-3.01,3.12,2.43,
18722,1661611078064,-1.3051,-0.072,0.5039,-5.71,4.4,-2.41,
18723,1661611078064,-1.1986,0.364,0.331,-3.03,-5.41,0.71,
18724,1661611078064,-1.1781,-0.0149,0.2143,-2.63,-2.2,-0.57,
18725,1661611078064,-1.1693,0.3972,0.353,-4.34,-2.54,-4.31,
18726,1661611078064,-1.0878,0.3733,0.3334,-3.64,2.02,0.62,
18727,1661611078064,-1.2494,0.2273,0.4868,-2.32,7.11,3.62,
18728,1661611078064,-1.2582,0.5461,0.5991,1.67,8.13,-1.77,
18729,1661611078064,-1.2401,0.4172,0.373,2.77,15.48,-0.12,
18730,1661611078064,-1.2094,0.5623,0.5502,4.09,24.87,1.97,
18731,1661611078064,-1.1664,0.6697,0.5463,5.58,26.22,-4.59,
18732,1661611078064,-1.1493,0.4373,0.2089,4.57,18.18,-1.03,
18733,1661611078064,-1.1454,0.6848,0.1162,7.56,15.31,-0.67,
18734,1661611078080,-1.0756,0.6584,0.2451,13.68,10.07,-2.41,
18735,1661611078080,-0.9945,0.4265,0.1918,16.96,10.4,-2.94,
18736,1661611078080,-1.0761,0.7327,-0.0142,21.07,11.0,-2.67,
18737,1661611078080,-0.9784,0.6487,0.0239,17.76,13.96,-0.57,
18738,1661611078080,-1.0726,0.6682,0.3749,16.67,16.08,-1.86,
18739,1661611078080,-0.9657,0.8132,0.0546,21.88,14.72,-6.5,
18740,1661611078080,-0.9486,0.5832,-0.1363,30.96,13.29,-5.14,
18741,1661611078080,-0.9677,0.8445,0.2353,34.18,19.04,-6.95,
18742,1661611078080,-0.9144,0.6726,0.1049,33.95,18.52,-6.5,
18743,1661611078080,-1.0258,0.5437,-0.1534,29.67,24.44,-8.88,
18744,1661611078080,-0.8197,0.8918,-0.2691,33.47,12.93,-7.96,
18745,1661611078080,-0.8876,0.4255,-0.4063,37.17,5.84,-7.69,
18746,1661611078080,-0.8334,0.6711,-0.2066,37.65,8.3,-10.51,
18747,1661611078080,-0.8163,0.4597,-0.4654,42.64,2.62,-9.52,
18748,1661611078080,-0.9296,0.407,-0.3433,38.25,8.2,-11.61,
18749,1661611078080,-0.89,0.5901,-0.3106,38.95,-3.47,-11.97,
18750,1661611078080,-0.8417,0.2795,-0.2794,39.75,8.3,-10.6,
18751,1661611078080,-0.7587,0.3665,-0.1358,42.96,6.27,-14.98,
18752,1661611078080,-0.7543,0.0774,-0.6934,45.67,0.76,-13.99,
18753,1661611078080,-0.7567,0.0491,-0.1817,42.57,-1.94,-15.07,
18754,1661611078080,-0.7523,0.0979,-0.3384,42.95,-2.61,-14.34,
18755,1661611078080,-0.6381,-0.4607,-0.9927,44.25,-10.4,-9.06,
18756,1661611078080,-0.8324,-0.1956,-0.1832,37.47,-7.1,-14.43,
18757,1661611078080,-0.8173,-0.4495,-0.2627,37.47,-17.51,-8.05,
18758,1661611078080,-0.7733,-0.7561,-0.8213,34.95,-32.48,-4.77,
18759,1661611078080,-0.9296,-0.467,-0.4004,32.57,-12.69,-4.68,
18760,1661611078080,-0.8964,-0.5808,0.351,30.85,-11.85,-2.67,
18761,1661611078080,-0.9169,-0.7385,-0.586,27.28,-25.79,-6.33,
18762,1661611078080,-0.8905,-0.7615,0.0927,22.37,-13.78,-3.67,
18763,1661611078080,-1.0956,-0.7678,0.3232,20.78,-14.71,-2.94,
18764,1661611078080,-0.891,-0.4949,-0.5782,20.96,-22.16,-0.67,
18765,1661611078080,-1.1,-0.8821,0.1581,18.57,-18.27,-1.49,
18766,1661611078080,-1.0165,-0.4275,-0.0655,13.96,-30.02,-6.24,
18767,1661611078080,-0.9808,-0.6126,-0.4376,9.38,-26.89,0.43,
18768,1661611078096,-1.0863,-0.4729,0.6157,8.48,-12.85,-5.69,
18769,1661611078096,-0.9716,-0.45,-0.1797,5.89,-29.26,-3.31,
18770,1661611078096,-1.0824,-0.4724,0.3217,2.09,-19.63,2.52,
18771,1661611078096,-1.1718,-0.2288,0.8159,2.67,-13.45,-1.49,
18772,1661611078096,-1.0673,-0.4094,0.2167,5.28,-13.11,2.06,
18773,1661611078096,-1.1503,-0.4788,0.1054,-1.21,-5.67,2.8,
18774,1661611078096,-1.2221,-0.0676,0.8115,-2.41,6.17,-2.85,
18775,1661611078096,-1.1307,-0.4836,0.062,-3.93,-1.94,3.35,
18776,1661611078096,-1.247,-0.0867,0.1049,-6.43,-2.61,0.43,
18777,1661611078096,-1.2098,0.0183,0.538,-2.74,-1.1,-0.48,
18778,1661611078096,-1.1381,-0.3997,0.3193,-3.73,-12.85,2.89,
18779,1661611078096,-1.2494,-0.0393,0.205,-4.22,-5.57,3.9,
18780,1661611078096,-1.1449,-0.1003,0.6694,-8.43,2.21,5.44,
18781,1661611078096,-1.3075,0.054,0.3745,-7.63,-1.01,8.37,
18782,1661611078096,-1.1913,0.1531,0.4394,-3.41,10.68,7.63,
18783,1661611078096,-1.1615,-0.0286,0.6679,1.58,12.69,9.63,
18784,1661611078096,-1.2528,0.5339,0.56,2.68,14.98,2.8,
18785,1661611078096,-1.0941,0.3665,0.1464,5.28,4.05,7.36,
18786,1661611078096,-1.2811,0.2053,0.3115,2.09,11.5,4.26,
18787,1661611078096,-1.1708,0.8196,0.6855,1.17,17.42,3.53,
18788,1661611078096,-1.0741,0.6013,-0.2276,5.96,9.23,0.98,
18789,1661611078096,-1.0326,0.8342,0.3461,6.47,20.04,-3.86,
18790,1661611078096,-1.0722,1.0579,0.6542,7.58,15.73,-2.5,
18791,1661611078096,-1.0316,0.7366,0.0039,11.96,7.78,-2.94,
18792,1661611078096,-0.9589,0.9177,-0.0499,16.77,9.73,-5.59,
18793,1661611078096,-1.0121,1.0207,0.5322,19.48,20.21,-9.61,
18794,1661611078096,-1.0038,0.8787,-0.0059,17.86,21.74,-8.6,
18795,1661611078096,-0.9672,0.9172,-0.3345,20.17,24.61,-8.69,
18796,1661611078096,-0.914,0.7219,0.04,26.56,32.31,-4.77,
18797,1661611078096,-0.8724,0.7478,-0.0113,29.17,23.6,-10.16,
18798,1661611078096,-0.8871,0.8137,-0.5831,34.25,11.09,-8.97,
18799,1661611078096,-0.7953,0.4353,-0.1729,33.96,7.87,-6.42,
18800,1661611078096,-0.973,0.6013,-0.1504,33.86,4.05,-9.33,
18801,1661611078111,-0.8729,0.343,-0.4356,39.76,3.55,-5.41,
18802,1661611078111,-0.8446,0.2371,-0.2857,39.94,7.87,-6.5,
18803,1661611078111,-0.893,0.4026,0.2709,37.75,6.51,-6.5,
18804,1661611078111,-0.8002,0.3044,-0.0406,38.45,4.48,-3.31,
18805,1661611078111,-0.9779,0.262,-0.3589,40.26,-0.59,-4.4,
18806,1661611078111,-0.7631,0.0154,-0.065,42.16,2.88,-4.31,
18807,1661611078111,-0.9432,0.053,0.268,39.85,12.02,-0.3,
18808,1661611078111,-0.7172,0.4636,-0.2647,36.97,5.58,-4.4,
18809,1661611078111,-0.5565,-0.1326,-1.4317,38.86,-6.34,-0.21,
18810,1661611078111,-0.6723,0.2551,0.0302,39.27,3.05,-8.6,
18811,1661611078111,-0.7279,0.156,-0.4498,43.56,-13.11,-4.31,
18812,1661611078111,-0.7396,-0.2,-1.3311,39.65,-20.04,-3.86,
18813,1661611078111,-0.8075,0.0217,-0.1729,32.07,-16.07,-13.44,
18814,1661611078111,-0.9227,-0.1653,0.0986,31.46,-12.52,-9.7,
18815,1661611078111,-0.787,-0.2859,-0.6729,41.56,-17.08,-9.33,
18816,1661611078111,-0.8412,-0.656,-0.0665,35.87,-11.92,-8.33,
18817,1661611078111,-0.9608,-0.5525,0.392,26.67,-5.67,-11.61,
18818,1661611078111,-1.0111,-0.3455,-0.0757,26.78,-8.79,-8.51,
18819,1661611078111,-0.89,-1.0857,-0.4205,29.87,-10.56,-6.05,
18820,1661611078111,-1.0409,-0.8474,-0.0294,18.47,-20.47,-8.78,
18821,1661611078111,-1.056,-0.5315,0.0019,14.46,-24.27,-3.03,
18822,1661611078111,-0.9056,-1.0618,-0.3619,18.66,-25.55,2.06,
18823,1661611078111,-1.0297,-0.8401,-0.2198,8.07,-26.3,-1.58,
18824,1661611078111,-1.1376,-0.8577,0.1708,3.67,-35.86,-0.12,
18825,1661611078111,-1.1107,-0.592,0.437,2.68,-31.64,-0.21,
18826,1661611078111,-0.9501,-0.7429,0.1972,6.08,-15.39,2.34,
18827,1661611078111,-1.1361,-0.74,-0.0772,1.77,-18.7,4.08,
18828,1661611078111,-1.1439,-0.3093,0.2983,-2.31,-10.32,4.99,
18829,1661611078124,-1.0946,-0.5994,0.8862,-3.83,-11.25,6.72,
18830,1661611078124,-1.122,-0.1594,0.1269,-1.32,-13.45,3.62,
18831,1661611078124,-1.0883,0.0271,-0.1348,-2.2,-9.37,4.99,
18832,1661611078124,-1.2211,-0.2542,0.9262,-9.91,5.58,6.54,
18833,1661611078124,-1.1903,0.1843,0.1293,-9.82,-6.0,2.52,
18834,1661611078124,-1.0458,0.1282,-0.3487,-7.51,-13.36,7.45,
18835,1661611078124,-1.1718,0.1111,0.5566,-3.82,-0.75,6.72,
18836,1661611078124,-1.265,0.1711,1.0551,-0.72,6.17,8.64,
18837,1661611078124,-1.3422,-0.0706,0.0766,-0.1,4.66,6.26,
18838,1661611078124,-1.2489,0.137,0.0913,-5.01,15.73,3.9,
18839,1661611078124,-1.1552,0.3362,0.8852,-7.71,25.29,5.71,
18840,1661611078124,-1.2396,0.0124,0.3891,-6.72,11.84,5.44,
18841,1661611078124,-1.2069,0.4875,-0.0225,-2.41,10.32,1.7,
18842,1661611078124,-1.1156,0.2019,0.3559,2.68,13.96,9.18,
18843,1661611078124,-1.2333,0.2488,0.4057,3.78,13.36,8.64,
18844,1661611078124,-1.2352,0.678,0.3129,1.17,15.82,5.62,
18845,1661611078124,-1.0375,0.3342,0.0434,1.08,3.81,7.73,
18846,1661611078124,-1.1737,0.6199,0.4697,4.48,7.78,4.72,
18847,1661611078124,-1.1005,0.7556,0.6567,10.66,8.46,3.99,
18848,1661611078124,-1.1693,0.5447,0.184,13.39,4.07,2.25,
18849,1661611078124,-0.995,0.8269,0.3696,18.15,20.21,-5.78,
18850,1661611078124,-1.0536,0.7502,0.2998,18.26,19.54,-4.86,
18851,1661611078124,-1.0502,0.7634,0.102,17.38,31.81,-5.41,
18852,1661611078124,-0.8261,1.011,-0.1324,14.17,22.17,-5.78,
18853,1661611078124,-0.9872,0.6208,-0.2178,22.08,16.75,-6.77,
18854,1661611078135,-0.9613,1.0276,-0.2139,30.07,5.67,-9.15,
18855,1661611078135,-0.849,0.864,-0.275,34.86,6.85,-8.97,
18856,1661611078135,-0.8016,0.7971,-0.1553,31.66,15.06,-11.7,
18857,1661611078135,-0.8666,0.8459,-0.4415,31.96,7.87,-11.52,
18858,1661611078135,-0.8002,0.6829,-0.2066,32.36,17.08,-11.88,
18859,1661611078135,-0.8759,0.741,0.2246,38.45,11.33,-11.42,
18860,1661611078135,-0.8305,0.3547,-0.5616,43.07,4.48,-9.42,
18861,1661611078135,-0.8309,0.4309,-0.0269,41.26,11.26,-9.52,
18862,1661611078139,-0.848,0.3533,-0.1055,43.67,11.67,-6.77,
18863,1661611078139,-0.6967,-0.1179,-0.9376,42.37,1.86,-5.05,
18864,1661611078139,-0.7636,0.1584,-0.2974,41.45,-1.27,-11.42,
18865,1661611078139,-0.83,0.1213,-0.0123,40.37,-7.44,-3.76,
18866,1661611078139,-0.6776,-0.2537,-0.7291,42.66,-19.7,-2.76,
18867,1661611078139,-0.7728,-0.0994,-0.5518,38.97,-11.33,-2.04,
18868,1661611078139,-0.7079,-0.366,-0.1187,37.06,-9.63,-2.57,
18869,1661611078139,-0.8851,-0.3826,-0.438,31.08,-15.13,-4.13,
18870,1661611078139,-0.7357,-0.4055,-0.0372,32.67,-12.52,-7.14,
18871,1661611078139,-0.893,-0.3577,-0.2012,29.48,-6.76,-11.24,
18872,1661611078139,-0.7279,-0.3279,-0.7671,33.67,-14.12,-8.78,
18873,1661611078139,-0.9613,-0.6052,0.165,29.55,-8.12,-10.51,
18874,1661611078139,-0.9301,-0.2576,-0.2208,26.56,-27.41,-11.24,
18875,1661611078139,-0.8241,-0.7175,-0.8926,25.77,-28.16,-0.03,
18876,1661611078139,-0.9042,-0.4343,0.5214,22.56,-6.09,-0.03,
18877,1661611078139,-0.8788,-0.5295,-0.376,18.46,-28.51,0.52,
18878,1661611078139,-1.058,-0.7463,-0.3213,16.86,-30.37,2.34,
18879,1661611078139,-1.1635,-0.4529,0.7412,14.46,-21.83,1.42,
18880,1661611078139,-1.1,-0.6165,0.5165,9.58,-16.74,7.36,
18881,1661611078139,-1.0643,-0.6428,-0.2535,3.87,-13.36,6.08,
18882,1661611078139,-1.0975,-0.5056,0.2919,5.98,-6.86,8.0,
18883,1661611078139,-1.1122,-0.7981,0.3749,3.87,-9.63,2.16,
18884,1661611078139,-1.1449,-0.3948,-0.1451,-2.83,-18.53,-0.3,
18885,1661611078139,-1.078,-0.7502,0.0502,-0.74,-23.34,6.63,
18886,1661611078139,-1.1102,-0.7698,0.2812,-4.02,-17.17,6.99,
18887,1661611078139,-1.289,-0.1487,0.3725,-7.83,-6.93,9.63,
18888,1661611078139,-1.0624,-0.5662,0.0302,-9.91,-8.63,8.37,
18889,1661611078139,-1.2333,-0.2268,0.5634,-10.32,-10.32,5.71,
18890,1661611078139,-1.1849,-0.0339,0.829,-5.91,-7.86,8.82,
18891,1661611078139,-1.329,-0.2805,0.1874,-3.62,-7.02,12.75,
18892,1661611078139,-1.1996,0.0789,0.7065,-7.92,6.1,8.46,
18893,1661611078139,-1.2015,0.0051,0.9233,-9.71,9.06,8.64,
18894,1661611078139,-1.3256,0.1418,0.4965,-8.93,10.49,9.45,
18895,1661611078139,-1.0756,0.3586,0.1123,-2.52,6.68,5.71,
18896,1661611078155,-1.266,0.033,0.4526,-2.92,8.54,6.99,
18897,1661611078155,-1.2426,0.3928,0.5351,-3.93,7.2,6.9,
18898,1661611078155,-1.1537,0.7219,0.3037,-1.21,4.98,8.28,
18899,1661611078155,-1.1547,0.3132,0.3442,-4.34,8.46,10.18,
18900,1661611078155,-1.1635,0.8386,0.434,-3.8,5.0,6.81,
18901,1661611078155,-1.1366,0.9021,0.5156,-3.22,16.66,4.72,
18902,1661611078155,-1.098,0.6355,0.3662,5.38,26.06,1.61,
18903,1661611078155,-0.9765,0.8069,0.1186,13.88,26.73,0.62,
18904,1661611078155,-1.0658,0.7571,0.3852,16.78,25.8,1.7,
18905,1661611078155,-1.0697,0.822,0.3071,12.78,24.87,-5.69,
18906,1661611078155,-0.9496,0.8264,-0.2774,15.58,21.74,-5.05,
18907,1661611078155,-0.8549,0.5354,-0.1275,14.86,17.68,-3.49,
18908,1661611078155,-1.1132,0.9397,0.1787,16.37,15.48,-8.05,
18909,1661611078155,-0.7523,0.4841,-0.4688,22.78,6.27,-3.03,
18910,1661611078155,-0.9281,0.4465,-0.1749,27.86,5.92,-2.57,
18911,1661611078155,-0.9501,0.7483,0.3823,28.65,17.42,-6.59,
18912,1661611078155,-0.9037,0.6633,0.1186,31.55,5.34,-8.05,
18913,1661611078155,-0.8783,0.3508,-0.5831,35.56,7.7,-4.4,
18914,1661611078155,-0.7645,0.5281,0.3994,34.76,20.64,-3.86,
18915,1661611078155,-0.9994,0.6731,0.1577,33.06,19.37,-5.14,
18916,1661611078155,-0.7318,0.592,-0.4532,34.07,1.18,-2.76,
18917,1661611078155,-0.7699,0.1897,-0.6793,34.57,3.47,-8.05,
18918,1661611078155,-0.9413,0.6301,0.0825,39.96,-3.71,-7.59,
18919,1661611078155,-0.7821,0.4128,-0.5674,39.26,-10.06,-5.5,
18920,1661611078155,-0.7582,0.239,-0.4512,34.37,2.38,-3.76,
18921,1661611078155,-0.6244,0.3196,-0.7891,34.77,-9.47,-8.14,
18922,1661611078155,-0.6503,0.2727,-0.6612,36.46,1.61,-8.14,
18923,1661611078155,-0.7523,0.3245,0.1635,43.07,5.5,-10.51,
18924,1661611078155,-0.7377,-0.0725,-0.752,43.96,-6.43,-9.42,
18925,1661611078155,-0.7421,-0.1682,-0.7881,35.95,-13.45,-9.15,
18926,1661611078155,-0.9169,0.0857,0.3295,34.05,-3.8,-9.97,
18927,1661611078155,-0.8431,-0.6013,-0.667,39.36,-12.01,-4.22,
18928,1661611078155,-0.7787,-0.5466,-0.8184,35.55,-9.89,-6.42,
18929,1661611078170,-0.9437,-0.4324,0.3271,27.48,-10.06,-11.97,
18930,1661611078170,-0.8881,-0.7908,-0.3472,25.77,-24.53,-9.79,
18931,1661611078170,-0.9027,-0.697,-0.5337,25.86,-25.37,-10.34,
18932,1661611078170,-0.9979,-0.9807,0.288,19.18,-12.85,-3.4,
18933,1661611078170,-1.0678,-0.8928,0.3066,14.29,-25.35,-4.13,
18934,1661611078170,-1.0004,-0.7703,-0.1412,17.56,-26.65,0.89,
18935,1661611078170,-1.0219,-0.759,0.0947,16.67,-22.16,-0.67,
18936,1661611078170,-1.0634,-0.6086,-0.2618,9.18,-28.68,1.33,
18937,1661611078170,-1.0697,-0.8982,0.1655,2.18,-15.98,6.72,
18938,1661611078170,-1.0443,-0.3298,0.54,-0.54,-14.88,3.44,
18939,1661611078170,-0.8788,-0.4768,-0.7813,1.08,-36.37,7.18,
18940,1661611078170,-1.0556,-0.5745,0.3583,-0.54,-17.51,7.54,
18941,1661611078170,-1.1088,-0.2908,0.8422,-2.31,-14.71,6.99,
18942,1661611078170,-1.0961,-0.3582,0.0678,-2.92,-21.66,5.8,
18943,1661611078170,-1.079,-0.1199,-0.1197,-4.93,-12.85,0.71,
18944,1661611078170,-1.2055,-0.1506,0.8515,-3.44,-5.93,4.08,
18945,1661611078170,-1.2855,-0.2815,0.6484,-8.32,-0.75,3.35,
18946,1661611078170,-1.1806,0.0847,0.0292,-7.71,-5.07,2.89,
18947,1661611078170,-1.2523,-0.2908,0.5722,-5.42,3.12,4.26,
18948,1661611078170,-1.266,-0.2087,0.851,-7.62,10.66,10.18,
18949,1661611078170,-1.3519,0.0715,0.4116,-9.83,6.01,9.45,
18950,1661611078170,-1.1659,-0.3167,0.0712,-6.81,4.57,14.65,
18951,1661611078170,-1.3348,0.156,0.5703,-7.92,4.24,9.91,
18952,1661611078170,-1.1703,0.0408,0.3857,-8.21,3.38,10.46,
18953,1661611078170,-1.1156,-0.1189,0.1967,-9.72,-4.23,13.01,
18954,1661611078170,-1.2606,0.3518,0.4706,-4.12,8.3,10.73,
18955,1661611078170,-1.1107,0.2732,0.4868,1.28,9.9,13.92,
18956,1661611078170,-1.3212,0.5413,0.4316,-0.22,13.36,6.9,
18957,1661611078170,-1.1254,0.7927,0.7358,-1.82,24.61,8.64,
18958,1661611078170,-1.1459,0.4363,0.435,1.69,7.11,9.72,
18959,1661611078170,-1.0326,0.7273,-0.0616,3.67,9.23,7.91,
18960,1661611078170,-0.9345,0.8865,0.7426,8.28,15.82,5.25,
18961,1661611078170,-1.1376,0.6965,0.5966,9.88,10.74,6.08,
18962,1661611078170,-0.9633,0.9436,-0.5616,15.27,5.75,-1.03,
18963,1661611078170,-0.9198,0.949,0.2319,14.87,31.05,2.16,
18964,1661611078186,-0.8856,1.032,0.394,12.07,33.32,-2.57,
18965,1661611078186,-0.7797,0.8972,-0.9068,16.86,9.23,-3.58,
18966,1661611078186,-0.8705,0.7556,-0.4131,20.37,18.52,-5.5,
18967,1661611078186,-0.9789,0.9724,0.621,28.47,17.01,-4.86,
18968,1661611078186,-0.8768,0.8318,-0.6031,31.37,14.55,-7.32,
18969,1661611078186,-0.8251,0.6208,-0.1783,32.36,31.21,-6.05,
18970,1661611078186,-0.9374,0.7185,0.0493,31.17,18.44,-9.79,
18971,1661611078186,-0.809,0.3635,-0.6656,32.27,8.2,-8.42,
18972,1661611078186,-0.7943,0.3743,-0.5342,36.25,6.1,-9.88,
18973,1661611078186,-0.8798,0.4602,-0.0499,40.55,-1.18,-13.62,
18974,1661611078186,-0.766,0.1536,-0.4854,40.97,-7.44,-7.04,
18975,1661611078186,-0.9281,0.2659,-0.3384,37.35,-0.25,-8.6,
18976,1661611078186,-0.8182,-0.0833,-0.1866,38.97,-4.64,-5.41,
18977,1661611078186,-0.8807,0.05,-0.1138,35.87,-8.79,-5.23,
18978,1661611078186,-0.6776,0.1477,0.0454,36.75,1.44,-6.77,
18979,1661611078186,-0.6249,-0.0471,-0.3301,38.05,-3.38,-2.85,
18980,1661611078186,-0.5692,-0.0657,-0.7354,35.85,-3.97,-6.42,
18981,1661611078186,-0.6967,-0.1365,-0.0767,36.65,-5.24,-1.77,
18982,1661611078186,-0.9125,-0.1506,-0.1617,33.66,-3.71,-2.22,
18983,1661611078186,-0.6967,-0.1043,-1.2759,35.08,-24.02,-2.13,
18984,1661611078186,-0.8764,-0.3147,-0.2681,29.75,-7.86,-4.59,
18985,1661611078186,-0.8417,-0.051,-0.0977,27.95,-22.07,-10.87,
18986,1661611078186,-0.7626,-0.5588,-0.8946,30.18,-24.69,-4.04,
18987,1661611078186,-0.9281,-0.3186,0.1181,26.67,-12.69,-11.88,
18988,1661611078186,-1.0082,-0.4876,0.249,23.37,-15.22,-10.07,
18989,1661611078186,-1.0453,-0.7888,-0.0782,21.27,-17.42,-3.49,
18990,1661611078186,-0.9926,-0.6516,0.0463,20.15,-9.89,-3.58,
18991,1661611078186,-1.0765,-0.8523,0.1982,12.46,-12.09,-0.57,
18992,1661611078186,-1.1171,-0.6301,0.0537,7.56,-12.09,-2.04,
18993,1661611078186,-0.9955,-0.7478,-0.19,6.98,-26.05,3.07,
18994,1661611078186,-0.9852,-0.9822,-0.3043,1.38,-24.45,2.98,
18995,1661611078186,-1.161,-0.4876,0.3071,0.97,-14.81,4.72,
18996,1661611078186,-0.9506,-0.8586,-0.0806,2.97,-19.28,4.45,
18997,1661611078186,-1.1019,-0.6257,0.0737,-5.82,-23.69,1.26,
18998,1661611078202,-1.1273,-0.5437,0.5141,-8.03,-33.91,2.25,
18999,1661611078202,-1.2943,-0.5081,0.3164,-2.63,-27.65,2.98,
19000,1661611078202,-1.204,-0.2419,0.4355,-4.11,-6.43,5.18,
19001,1661611078202,-1.1708,-0.387,0.5156,-8.3,-0.74,6.54,
19002,1661611078202,-1.2704,-0.1282,0.706,-12.1,9.23,2.52,
19003,1661611078202,-1.1039,-0.0159,0.4062,-9.83,-5.93,4.54,
19004,1661611078202,-1.244,-0.2234,0.1704,-6.82,-6.17,3.99,
19005,1661611078202,-1.2587,0.3484,0.5156,-8.23,-6.86,1.7,
19006,1661611078202,-1.2142,0.2048,0.5776,-11.43,1.44,6.99,
19007,1661611078202,-1.2338,0.0364,0.3061,-10.59,2.3,3.8,
19008,1661611078202,-1.2138,0.4109,0.1884,-8.53,7.94,3.16,
19009,1661611078202,-1.2587,0.2258,0.6821,-7.42,16.75,3.8,
19010,1661611078202,-1.2611,0.3699,0.7031,-1.64,17.08,1.97,
19011,1661611078202,-1.1444,0.4294,0.3071,-1.64,16.41,4.35,
19012,1661611078202,-1.2255,0.3025,0.4584,-4.43,16.08,0.16,
19013,1661611078202,-1.1679,0.802,0.4536,-6.41,19.37,-0.67,
19014,1661611078202,-1.08,0.3596,-0.0186,-0.13,22.75,0.98,
19015,1661611078202,-1.0687,0.2727,-0.0611,3.26,22.58,2.34,
19016,1661611078202,-1.143,0.8562,0.2993,5.57,17.18,0.71,
19017,1661611078202,-1.0092,0.5544,-0.0464,11.67,6.85,3.53,
19018,1661611078202,-1.0243,0.654,0.0576,11.27,6.17,-2.94,
19019,1661611078202,-1.0883,0.8289,0.2729,13.06,11.42,-1.4,
19020,1661611078202,-0.9379,0.5676,0.229,14.57,15.15,-2.85,
19021,1661611078202,-0.9467,0.78,0.0214,15.16,19.54,-6.14,
19022,1661611078202,-0.7504,0.7195,0.2314,22.17,21.81,-1.86,
19023,1661611078202,-0.9266,0.7361,0.1069,26.85,25.71,-6.68,
19024,1661611078202,-0.8729,0.7366,-0.3873,27.57,11.33,-1.77,
19025,1661611078202,-0.9154,0.5867,-0.1343,27.28,18.69,-1.58,
19026,1661611078202,-0.8466,0.884,0.3071,27.07,15.89,-2.67,
19027,1661611078202,-0.683,0.7795,-1.0435,33.08,2.47,-5.32,
19028,1661611078202,-0.7328,0.5876,-0.1622,32.05,20.55,-8.88,
19029,1661611078202,-0.8817,0.6824,-0.0108,35.46,-0.08,-5.14,
19030,1661611078202,-0.8524,0.5325,-0.6563,38.17,-2.97,-6.5,
19031,1661611078202,-0.8505,0.6228,-0.1539,34.07,1.69,-7.04,
19032,1661611078202,-0.7953,0.4226,-0.064,34.65,4.48,-14.34,
19033,1661611078217,-0.7738,0.1936,-0.42,38.95,1.09,-11.97,
19034,1661611078217,-0.7401,0.2737,-0.461,42.16,5.24,-14.52,
19035,1661611078217,-0.7582,-0.0769,-0.2588,41.36,4.57,-11.24,
19036,1661611078217,-0.849,0.0447,-0.3243,38.25,-2.54,-11.97,
19037,1661611078217,-0.7396,-0.2473,-0.5416,38.75,-9.82,-11.24,
19038,1661611078217,-0.7289,-0.4734,-0.586,36.16,-14.21,-9.33,
19039,1661611078217,-0.848,-0.1917,-0.2051,30.96,-8.12,-2.57,
19040,1661611078217,-0.7973,-0.7107,-0.4234,29.46,-17.34,-0.3,
19041,1661611078217,-0.8856,-0.5178,-0.2955,34.07,-16.84,-7.41,
19042,1661611078217,-0.8651,-0.6155,0.0165,28.06,-20.89,-2.94,
19043,1661611078217,-0.9349,-0.6711,-0.0259,25.36,-19.96,-3.58,
19044,1661611078217,-0.8827,-0.5193,-0.3526,19.25,-15.22,-9.06,
19045,1661611078217,-0.9926,-0.9417,0.0302,16.87,-12.18,-5.41,
19046,1661611078217,-0.996,-0.4675,0.1425,16.96,-18.27,-5.87,
19047,1661611078217,-0.85,-0.5266,-0.2955,18.66,-23.0,0.07,
19048,1661611078217,-0.9755,-0.8616,-0.2291,12.48,-27.15,1.52,
19049,1661611078217,-1.0448,-0.4543,0.0766,4.07,-27.82,-0.21,
19050,1661611078217,-1.1737,-0.5378,0.4047,3.08,-12.35,0.34,
19051,1661611078217,-1.0306,-0.467,-0.4752,1.87,-28.25,1.61,
19052,1661611078217,-1.0834,-0.5139,0.2661,-0.72,-19.03,1.7,
19053,1661611078217,-1.1469,-0.4119,0.9448,-2.52,-7.27,0.89,
19054,1661611078217,-1.1288,-0.4246,0.1694,0.68,-18.94,0.43,
19055,1661611078217,-1.1093,-0.6648,-0.272,-1.93,-10.32,-0.94,
19056,1661611078217,-1.2831,-0.1926,0.9125,-9.31,-3.8,0.52,
19057,1661611078217,-1.2025,-0.3191,0.1083,-8.41,-13.71,-0.21,
19058,1661611078217,-1.0682,-0.4807,-0.0699,-10.32,-11.85,1.52,
19059,1661611078217,-1.2665,-0.032,0.8051,-10.73,3.72,2.52,
19060,1661611078217,-1.0658,-0.3684,0.1376,-9.63,-4.14,3.62,
19061,1661611078217,-1.2416,-0.3181,0.0434,-7.19,-6.49,6.54,
19062,1661611078217,-1.2284,-0.0662,0.9213,-7.62,8.13,7.82,
19063,1661611078217,-1.2899,-0.0364,0.3818,-9.63,-6.86,6.63,
19064,1661611078217,-1.1757,0.1887,0.3217,-12.81,4.82,8.92,
19065,1661611078233,-1.1654,0.0749,1.0039,-7.71,10.23,5.44,
19066,1661611078233,-1.3783,0.1213,0.5698,-5.91,9.56,6.26,
19067,1661611078233,-1.1283,0.5193,-0.0547,-2.93,8.46,4.26,
19068,1661611078233,-1.2992,0.3953,0.7856,-3.42,18.61,1.26,
19069,1661611078233,-1.183,0.7976,0.4379,-3.83,14.8,1.61,
19070,1661611078233,-1.0858,0.7522,-0.2374,-1.83,1.69,0.71,
19071,1661611078233,-1.1093,0.595,0.2016,-0.63,20.04,4.45,
19072,1661611078233,-1.0829,0.9763,0.7641,4.59,14.12,-1.31,
19073,1661611078233,-1.014,0.8137,-0.2789,7.76,13.12,1.26,
19074,1661611078233,-1.0057,0.9495,0.1928,11.96,19.62,4.81,
19075,1661611078233,-1.0365,1.0203,0.5664,13.07,34.85,0.8,
19076,1661611078233,-1.0209,0.823,0.1884,13.06,24.1,0.25,
19077,1661611078233,-0.9862,0.8489,-0.4312,15.06,21.14,-5.96,
19078,1661611078233,-0.9349,0.7234,0.1674,18.57,22.41,-3.95,
19079,1661611078233,-0.8681,0.7004,-0.1514,27.07,15.15,-2.41,
19080,1661611078233,-0.9848,0.7664,-0.4708,28.87,13.87,2.16,
19081,1661611078233,-0.8451,0.5911,-0.2413,29.57,15.89,0.71,
19082,1661611078233,-0.8529,0.5457,-0.1192,28.45,6.17,-4.13,
19083,1661611078233,-0.9237,0.5374,-0.3492,27.75,1.69,-1.31,
19084,1661611078233,-0.9017,0.3079,-0.0547,33.93,1.02,-1.12,
19085,1661611078233,-0.8441,0.4451,0.0766,38.27,3.55,-3.76,
19086,1661611078233,-0.7401,0.3635,-0.0972,38.07,5.41,-1.03,
19087,1661611078233,-0.9813,0.3435,-0.2837,34.56,7.36,-7.96,
19088,1661611078233,-0.7694,0.2327,-0.4293,33.37,-1.35,-6.5,
19089,1661611078233,-0.9052,0.0891,0.1259,32.25,9.23,-6.77,
19090,1661611078233,-0.7509,0.4729,-0.4166,32.05,1.28,-10.78,
19091,1661611078233,-0.6532,0.2322,-1.231,39.07,-19.96,-9.97,
19092,1661611078233,-0.6942,0.0261,-0.6143,35.46,-0.84,-12.16,
19093,1661611078233,-0.8554,0.3318,0.207,34.56,-6.17,-8.97,
19094,1661611078233,-0.7181,-0.2258,-1.1929,33.46,-17.77,-11.06,
19095,1661611078233,-0.6718,0.1028,-0.4219,35.27,-10.56,-15.53,
19096,1661611078233,-0.8983,-0.0789,0.1845,30.77,-11.16,-7.32,
19097,1661611078233,-0.8998,-0.3586,-0.6822,29.05,-18.87,-7.14,
19098,1661611078233,-0.8778,-0.4036,-0.2969,35.55,-8.53,-5.69,
19099,1661611078233,-1.0468,-0.6448,0.1279,31.47,-6.17,-8.05,
19100,1661611078249,-0.952,-0.4656,-0.2305,21.86,-11.68,-8.97,
19101,1661611078249,-0.8915,-1.0173,-0.2037,18.86,-17.0,-3.4,
19102,1661611078249,-1.0302,-0.8245,-0.1265,19.88,-23.93,0.16,
19103,1661611078249,-1.0897,-0.6331,0.0224,17.18,-24.95,-4.04,
19104,1661611078249,-0.8973,-0.907,0.1025,12.57,-22.16,-5.05,
19105,1661611078249,-0.9906,-0.9119,-0.2256,7.06,-26.81,-6.5,
19106,1661611078249,-1.1122,-0.8543,-0.1675,4.48,-23.26,1.33,
19107,1661611078249,-1.2113,-0.7913,0.6611,-0.02,-14.12,1.33,
19108,1661611078249,-1.0599,-0.4944,0.2241,-4.63,-19.28,3.8,
19109,1661611078249,-1.1727,-0.7561,-0.3726,-4.23,-30.54,5.25,
19110,1661611078249,-1.1498,-0.4119,0.5122,-2.61,-20.13,8.28,
19111,1661611078249,-1.1083,-0.4885,0.7641,-2.52,-5.07,10.92,
19112,1661611078249,-1.2767,-0.4382,0.269,-8.82,-9.47,7.63,
19113,1661611078249,-1.2045,-0.0686,-0.4551,-12.62,-15.05,6.63,
19114,1661611078249,-1.2089,-0.2151,0.8115,-10.03,-0.08,12.38,
19115,1661611078249,-1.1547,0.0984,0.7133,-9.71,-5.5,8.55,
19116,1661611078249,-1.0214,-0.0588,-0.542,-7.53,-12.18,5.99,
19117,1661611078249,-1.2479,0.0203,1.0439,-10.91,6.68,4.99,
19118,1661611078249,-1.4091,0.1526,1.0478,-9.01,2.45,2.71,
19119,1661611078249,-1.3412,-0.0613,0.2753,-9.13,-0.75,5.89,
19120,1661611078249,-1.1649,0.0007,0.2329,-7.42,16.58,3.99,
19121,1661611078249,-1.1737,0.2942,0.831,-9.31,21.57,1.61,
19122,1661611078249,-1.1517,0.156,0.1332,-9.71,12.77,-0.3,
19123,1661611078249,-1.2074,0.3196,0.1313,-11.11,10.32,0.71,
19124,1661611078249,-1.1908,0.3044,0.3461,-5.6,6.36,4.81,
19125,1661611078249,-1.2465,0.3772,0.2499,-4.22,4.24,4.26,
19126,1661611078249,-1.1893,0.6526,0.3525,-1.12,7.94,1.97,
19127,1661611078249,-0.976,0.3328,0.2607,1.26,13.87,9.18,
19128,1661611078249,-1.078,0.4607,0.1206,-0.13,13.03,4.54,
19129,1661611078249,-1.0385,0.8137,0.288,3.06,12.1,2.06,
19130,1661611078249,-1.2064,0.6238,0.5966,7.76,17.76,1.07,
19131,1661611078249,-0.9721,0.8137,0.164,9.18,17.08,-1.58,
19132,1661611078249,-0.9262,0.802,-0.1089,13.07,12.86,-2.13,
19133,1661611078249,-1.0282,0.8718,0.3686,10.86,35.61,-4.13,
19134,1661611078249,-0.8837,0.9631,-0.0088,12.97,24.96,-3.86,
19135,1661611078264,-0.9013,0.6604,-0.6832,18.58,16.58,-5.05,
19136,1661611078264,-0.9882,1.0779,0.0605,23.28,10.49,-8.88,
19137,1661611078264,-0.9154,0.8137,-0.0738,27.07,6.6,-11.33,
19138,1661611078264,-0.8837,0.677,-0.2706,29.05,13.45,-9.33,
19139,1661611078264,-0.8163,0.885,-0.4766,27.36,13.45,-11.7,
19140,1661611078264,-0.8285,0.7493,-0.0333,28.76,16.58,-10.87,
19141,1661611078264,-0.8734,0.6526,-0.0132,35.55,9.64,-13.35,
19142,1661611078264,-0.7977,0.4739,-0.5762,40.95,7.44,-12.52,
19143,1661611078264,-0.7909,0.4714,-0.0357,38.27,11.76,-11.33,
19144,1661611078264,-0.8856,0.3748,-0.2696,35.17,2.12,-9.06,
19145,1661611078264,-0.6576,-0.0447,-1.0259,36.25,-9.82,-10.87,
19146,1661611078264,-0.7938,0.2473,-0.1509,36.77,-9.89,-7.23,
19147,1661611078264,-0.8768,0.2053,0.0854,40.66,-12.69,-3.4,
19148,1661611078264,-0.7914,-0.2942,-0.6334,41.15,-20.47,0.07,
19149,1661611078264,-0.7758,-0.1262,-0.2901,37.46,-5.07,1.61,
19150,1661611078264,-0.6893,-0.3103,-0.0499,29.66,-8.37,4.45,
19151,1661611078264,-0.8622,-0.2732,-0.4893,27.46,-11.42,2.25,
19152,1661611078264,-0.7587,-0.3767,-0.0972,28.36,-7.6,-0.21,
19153,1661611078264,-0.9379,-0.4207,-0.3067,29.55,-9.89,-3.03,
19154,1661611078264,-0.8231,-0.2556,-0.6797,29.57,-16.07,-3.49,
19155,1661611078264,-0.9384,-0.5759,-0.0562,29.95,-11.92,-6.05,
19156,1661611078264,-0.8812,-0.3586,-0.4078,24.06,-26.3,-5.78,
19157,1661611078264,-0.8676,-0.656,-0.3331,16.48,-22.92,-8.05,
19158,1661611078264,-1.0087,-0.5027,0.3808,19.88,-16.91,-7.5,
19159,1661611078264,-1.0424,-0.3713,0.0532,17.19,-28.07,-9.97,
19160,1661611078264,-1.0355,-0.7126,-0.2969,15.97,-22.59,-5.23,
19161,1661611078264,-1.1366,-0.5999,0.6186,8.17,-13.02,-0.48,
19162,1661611078264,-1.0184,-0.6057,0.1684,4.86,-14.64,-0.21,
19163,1661611078264,-1.0302,-0.6643,-0.1343,2.86,-9.39,-0.85,
19164,1661611078264,-1.0629,-0.4841,0.2338,0.16,-1.01,0.62,
19165,1661611078264,-1.0482,-0.8484,0.0268,-0.22,-8.96,3.44,
19166,1661611078280,-1.1493,-0.5481,-0.1089,-1.12,-18.7,1.16,
19167,1661611078280,-1.0956,-0.3933,0.0356,-5.62,-28.08,2.43,
19168,1661611078280,-1.0902,-0.6848,0.1201,-8.32,-29.94,5.8,
19169,1661611078280,-1.3246,-0.3552,0.4272,-11.01,-5.5,7.91,
19170,1661611078280,-1.1132,-0.488,0.4702,-13.81,-0.51,9.82,
19171,1661611078280,-1.2484,-0.2517,0.4926,-13.32,-1.35,9.91,
19172,1661611078280,-1.1503,-0.054,0.9243,-13.92,-3.21,10.82,
19173,1661611078280,-1.3427,-0.2942,0.3159,-6.32,-4.57,6.35,
19174,1661611078280,-1.1942,-0.1091,0.1494,-6.32,5.84,9.45,
19175,1661611078280,-1.1976,0.053,0.6967,-9.13,12.77,11.37,
19176,1661611078280,-1.3139,0.1472,0.6738,-12.91,13.96,11.1,
19177,1661611078280,-1.0892,0.3303,-0.2051,-8.11,-0.17,9.54,
19178,1661611078280,-1.2074,0.1296,0.2646,-6.02,1.69,10.55,
19179,1661611078280,-1.306,0.6433,0.6669,-7.43,-1.94,9.63,
19180,1661611078280,-1.1561,0.655,0.435,-10.03,3.81,5.62,
19181,1661611078280,-1.1264,0.4314,0.1459,-9.62,10.07,5.89,
19182,1661611078280,-1.1146,0.8254,0.6923,-5.91,22.58,3.26,
19183,1661611078280,-1.1986,0.7156,0.5239,-1.82,29.35,4.26,
19184,1661611078280,-1.0526,0.6462,0.1811,4.27,23.34,-2.31,
19185,1661611078280,-0.9056,0.8035,0.018,6.66,26.06,-5.05,
19186,1661611078280,-1.0365,0.7825,0.3007,9.47,20.04,0.8,
19187,1661611078280,-1.0897,0.8499,-0.1221,10.07,18.35,-4.4,
19188,1661611078280,-0.8656,0.6072,-0.3448,16.16,13.53,-6.14,
19189,1661611078280,-0.827,0.5828,-0.1021,11.96,14.29,-1.95,
19190,1661611078280,-1.0971,0.8616,0.1479,15.07,13.36,-3.4,
19191,1661611078280,-0.7167,0.449,-0.4004,20.87,5.84,0.07,
19192,1661611078280,-0.891,0.5603,0.1381,22.56,12.77,-3.4,
19193,1661611078280,-0.9071,0.7302,0.3559,20.87,11.76,-2.04,
19194,1661611078280,-1.0473,0.4851,-0.3023,26.58,5.5,-2.31,
19195,1661611078280,-0.8651,0.5398,-0.1793,27.49,18.12,-8.14,
19196,1661611078280,-0.7431,0.5408,0.2021,27.97,16.92,-2.5,
19197,1661611078280,-0.8471,0.7136,-0.0962,28.56,16.41,-4.31,
19198,1661611078280,-0.6762,0.4133,-0.7701,34.36,1.86,-3.95,
19199,1661611078280,-0.8285,0.3777,-0.2676,34.66,8.88,-6.95,
19200,1661611078295,-0.9447,0.7024,-0.4195,32.67,-13.36,-3.12,
