srNo,timestamp,ax,ay,az,gx,gy,gz,temp
34736,1661621471745,-0.8661,0.7541,-0.017,38.72,6.87,-0.69,
34737,1661621471745,-0.7763,0.8718,-0.0131,38.11,5.26,-5.25,
34738,1661621471745,-0.7216,0.1642,-0.2245,38.11,0.87,-3.15,
34739,1661621471745,-0.7264,0.7521,0.0699,39.71,6.53,-6.7,
34740,1661621471745,-0.6395,0.5471,-0.8871,39.31,-16.39,-8.99,
34741,1661621471745,-0.7538,-0.0106,-0.559,38.02,-8.35,-9.18,
34742,1661621471745,-0.7748,0.3171,0.4102,29.41,-2.09,-10.09,
34743,1661621471745,-0.8256,0.2546,0.0406,35.5,-3.02,-12.55,
34744,1661621471745,-0.7567,-0.0237,-0.7665,37.5,-12.5,-14.55,
34745,1661621471745,-0.9432,-0.0604,0.1168,35.19,-9.54,-12.46,
34746,1661621471745,-0.975,-0.2659,0.7901,29.43,-8.61,-15.01,
34747,1661621471745,-0.9569,-0.2669,-0.3959,29.52,-19.42,-12.37,
34748,1661621471745,-1.0365,-0.7225,-0.1118,26.42,2.47,-6.89,
34749,1661621471745,-0.9608,-0.2879,0.8096,19.02,5.52,-9.91,
34750,1661621471745,-0.8876,-0.4266,-0.2817,19.43,-9.96,-7.16,
34751,1661621471745,-0.9808,-1.0252,-0.6396,18.73,-21.29,-9.18,
34752,1661621471745,-1.0629,-0.6087,0.5225,14.3,-6.65,-10.81,
34753,1661621471745,-0.9486,-0.7654,-0.1196,13.53,-18.42,-2.16,
34754,1661621471745,-1.0726,-0.928,-0.727,9.33,-28.56,-4.52,
34755,1661621471745,-1.0311,-0.993,0.4078,4.23,-25.94,-0.05,
34756,1661621471745,-1.1654,-0.8319,0.6876,-3.67,-17.23,-1.24,
34757,1661621471745,-1.0311,-0.4935,0.0513,-1.49,-9.61,-0.23,
34758,1661621471745,-1.0072,-0.9861,-0.2465,-7.76,-6.49,1.67,
34759,1661621471761,-1.1566,-0.5106,0.7838,-14.58,0.95,0.86,
34760,1661621471761,-1.1625,-0.4876,0.314,-14.86,-8.77,-2.16,
34761,1661621471762,-1.2138,-0.6185,-0.0732,-12.06,-2.26,-0.6,
34762,1661621471762,-1.2528,-0.2708,0.2955,-20.39,-2.78,-2.43,
34763,1661621471762,-1.288,-0.3397,0.4976,-20.47,2.04,2.41,
34764,1661621471762,-1.1439,-0.1595,0.3858,-20.85,-2.09,-4.8,
34765,1661621471762,-1.1351,-0.2254,-0.0966,-18.87,-8.51,0.59,
34766,1661621471762,-1.3153,-0.2205,0.2486,-22.96,-2.52,0.68,
34767,1661621471762,-1.3573,0.2311,0.7213,-21.37,0.37,2.22,
34768,1661621471762,-1.2787,-0.261,0.4634,-17.56,3.91,5.06,
34769,1661621471762,-1.1757,0.0466,0.2852,-17.86,7.96,3.23,
34770,1661621471762,-1.1273,0.2043,0.4537,-18.37,7.63,6.88,
34771,1661621471762,-1.1508,0.1496,0.5362,-17.18,4.76,3.96,
34772,1661621471762,-1.2108,0.2487,0.4634,-17.07,-1.85,3.96,
34773,1661621471762,-1.1185,0.1174,0.0079,-10.86,-10.97,4.33,
34774,1661621471762,-1.0721,0.256,0.4434,-7.17,-9.37,4.69,
34775,1661621471762,-1.1102,0.5309,0.5967,-5.88,4.5,5.32,
34776,1661621471762,-0.9745,0.341,0.1602,-6.77,1.63,9.61,
34777,1661621471762,-1.1014,0.4431,-0.0151,-6.17,8.39,9.33,
34778,1661621471762,-0.9608,0.7116,0.8765,-6.88,16.6,8.98,
34779,1661621471762,-1.0931,0.6901,0.2369,-3.58,3.57,9.24,
34780,1661621471762,-0.933,0.7834,-0.0795,3.23,1.11,11.71,
34781,1661621471762,-0.8622,0.7297,0.3541,8.54,7.96,10.52,
34782,1661621471762,-1.0272,0.9035,0.73,10.23,19.99,9.16,
34783,1661621471762,-0.8114,1.1921,-0.371,13.72,9.66,7.15,
34784,1661621471762,-0.7709,1.0583,-0.4492,14.82,15.24,4.24,
34785,1661621471762,-0.8915,1.1061,0.5064,13.22,21.0,1.58,
34786,1661621471762,-0.8842,1.1652,0.2281,17.72,9.83,-1.61,
34787,1661621471762,-0.8607,1.1379,-0.0151,23.7,7.29,1.14,
34788,1661621471762,-0.8275,1.1638,-0.0488,34.0,2.56,-1.61,
34789,1661621471762,-0.8236,0.9723,0.045,36.22,9.75,0.04,
34790,1661621471762,-0.8021,0.9001,0.2462,35.01,16.27,-7.71,
34791,1661621471762,-0.7631,0.8268,-0.2988,33.8,11.86,-5.62,
34792,1661621471762,-0.6986,0.3879,-0.3422,37.89,9.99,-5.16,
34793,1661621471762,-0.8778,0.7731,0.2984,42.3,9.58,-9.08,
34794,1661621471762,-0.747,0.6017,0.045,45.31,-5.39,-4.71,
34795,1661621471762,-0.6893,-0.0418,-0.9877,44.12,-22.05,-6.61,
34796,1661621471778,-0.8573,0.2399,-0.0239,42.12,-3.02,-3.52,
34797,1661621471778,-0.7665,0.0598,0.3013,39.11,2.47,-5.07,
34798,1661621471778,-0.7162,-0.1849,-0.7299,32.72,-5.74,-7.62,
34799,1661621471778,-0.7528,-0.1658,-0.0795,33.62,-13.76,-9.54,
34800,1661621471778,-0.9735,-0.2064,0.4625,34.2,-10.97,-8.17,
34801,1661621471778,-0.8383,-0.1126,-0.435,36.72,-10.97,-6.17,
34802,1661621471778,-0.9476,-0.428,-0.0942,28.98,-1.85,-10.18,
34803,1661621471778,-1.0956,-0.1956,0.4171,27.01,-2.01,-11.08,
34804,1661621471778,-1.0409,-0.098,0.0201,26.01,-18.51,-8.99,
34805,1661621471778,-0.9945,-0.4827,-0.4594,22.31,-13.69,-6.98,
34806,1661621471778,-1.0067,-0.0965,0.2193,15.92,-10.9,-7.99,
34807,1661621471778,-0.9056,-0.4388,0.2198,18.61,-10.3,-3.33,
34808,1661621471778,-0.8749,-0.2816,-0.2743,16.81,-13.17,-6.08,
34809,1661621471778,-0.9515,-0.5071,-0.0795,14.32,-13.09,-9.08,
34810,1661621471778,-1.1166,-0.6365,0.3839,8.81,-7.51,-10.99,
34811,1661621471778,-1.0072,-0.515,-0.2045,7.82,-12.24,-9.45,
34812,1661621471778,-1.0565,-0.9432,-0.249,7.32,-3.45,-7.16,
34813,1661621471778,-1.1405,-0.6263,0.1827,-0.27,-7.08,-6.52,
34814,1661621471778,-1.0404,-0.8929,-0.121,-5.96,-16.3,-7.25,
34815,1661621471778,-0.9764,-0.9988,-0.1596,-5.56,-15.37,-5.07,
34816,1661621471778,-1.2582,-0.6717,0.149,-10.57,-4.12,-7.53,
34817,1661621471778,-1.1503,-1.0316,0.2051,-17.68,-7.51,-1.24,
34818,1661621471778,-1.3051,-0.7152,0.3985,-20.85,-11.83,-5.44,
34819,1661621471789,-1.1845,-0.6385,0.418,-16.56,-15.63,2.68,
34820,1661621471789,-1.3124,-0.7332,0.231,-22.59,-2.26,4.14,
34821,1661621471789,-1.2006,-0.1668,0.9527,-21.75,19.39,6.78,
34822,1661621471789,-1.3026,-0.4373,0.1885,-21.68,-4.62,5.06,
34823,1661621471789,-1.1444,0.072,0.1841,-23.86,-8.1,6.24,
34824,1661621471789,-1.1605,0.0046,1.0401,-23.86,11.86,9.52,
34825,1661621471789,-1.497,-0.0779,0.608,-22.27,-2.09,5.69,
34826,1661621471789,-1.2636,0.4767,-0.4477,-20.36,-7.08,8.34,
34827,1661621471789,-1.0702,0.3473,0.3887,-13.68,7.29,11.26,
34828,1661621471789,-1.0995,0.6208,0.8829,-17.95,-2.01,8.71,
34829,1661621471789,-0.9379,0.5627,0.087,-15.27,-7.25,6.6,
34830,1661621471789,-1.0346,0.4782,0.2574,-13.67,-10.54,2.31,
34831,1661621471789,-1.0092,0.7194,0.462,-3.67,6.53,2.77,
34832,1661621471789,-1.0575,0.6735,0.628,-1.47,21.0,7.33,
34833,1661621471789,-1.0131,0.5964,0.2257,-2.27,23.12,5.5,
34834,1661621471789,-1.0136,0.7297,-0.1113,-0.79,11.61,3.41,
34835,1661621471789,-1.0009,0.6306,0.4439,-0.97,13.64,4.51,
34836,1661621471789,-1.0643,0.7785,0.6026,2.23,12.12,4.79,
34837,1661621471789,-0.9906,0.6384,-0.1327,9.33,2.23,6.05,
34838,1661621471789,-0.8344,0.4074,-0.1811,12.93,0.7,6.24,
34839,1661621471789,-1.0375,1.0246,0.7584,14.12,4.84,3.6,
34840,1661621471789,-0.9696,0.9055,0.5611,19.31,-0.82,7.43,
34841,1661621471789,-0.9076,0.5978,-0.2983,16.61,-2.85,10.07,
34842,1661621471789,-0.9701,0.801,0.5328,20.62,16.34,9.24,
34843,1661621471789,-1.016,0.8967,0.6807,22.73,13.21,6.97,
34844,1661621471789,-1.0385,0.923,0.1446,24.62,4.0,4.33,
34845,1661621471789,-0.7421,0.8747,-0.3368,27.01,-0.23,2.95,
34846,1661621471789,-0.9442,0.9406,0.5777,29.01,18.46,3.32,
34847,1661621471789,-0.6928,1.0925,-0.1249,36.32,9.83,-7.16,
34848,1661621471789,-0.7157,0.5724,-1.0107,41.62,-2.18,-0.97,
34849,1661621471789,-0.7723,0.9738,0.17,37.7,6.12,-6.7,
34850,1661621471789,-0.8539,1.0324,0.3199,36.02,-0.06,-7.99,
34851,1661621471789,-0.7465,0.4069,-0.5859,39.39,-10.9,-3.52,
34852,1661621471789,-0.6796,0.6603,-0.7343,40.79,-13.93,-13.01,
34853,1661621471789,-0.7191,0.5016,0.17,41.92,-0.49,-11.27,
34854,1661621471805,-0.7943,0.1076,0.0587,39.51,-0.49,-11.72,
34855,1661621471805,-0.8734,-0.036,-0.3212,40.72,6.19,-9.63,
34856,1661621471805,-0.8671,-0.387,-0.0761,36.32,1.11,-11.54,
34857,1661621471805,-0.8514,0.0256,0.1465,34.2,1.54,-13.01,
34858,1661621471805,-0.8471,-0.2918,0.0069,34.6,-14.36,-8.63,
34859,1661621471805,-0.8422,-0.7913,-0.4179,31.32,-19.42,-7.25,
34860,1661621471805,-1.038,-0.2708,-0.0854,27.62,-13.43,-8.35,
34861,1661621471805,-0.9315,-0.845,0.1812,27.23,-4.12,-3.97,
34862,1661621471805,-0.8617,-0.4969,0.0635,20.8,-15.96,-7.35,
34863,1661621471805,-0.8807,-0.6678,-0.1225,12.43,-24.67,-4.43,
34864,1661621471805,-1.1097,-0.7259,0.1314,8.93,-21.12,-6.43,
34865,1661621471805,-0.9335,-0.514,0.3614,12.52,-10.04,-3.33,
34866,1661621471805,-1.1815,-0.7679,-0.0263,12.72,-3.02,-4.16,
34867,1661621471805,-1.0507,-0.4852,-0.3354,8.83,-14.86,-1.42,
34868,1661621471805,-1.0106,-0.7215,-0.0053,2.13,-17.58,-0.6,
34869,1661621471805,-1.1947,-0.6092,0.6763,-1.17,-5.05,-2.87,
34870,1661621471805,-1.0013,-0.2156,-0.6088,-1.58,-19.18,-5.35,
34871,1661621471805,-1.0951,-0.8914,-0.2236,-10.46,-7.42,-1.15,
34872,1661621471805,-1.1508,-0.3685,0.9942,-10.06,-13.26,-2.78,
34873,1661621471805,-1.0668,-0.3768,-0.2011,-10.16,-14.19,-0.78,
34874,1661621471805,-1.1586,-0.5228,0.084,-14.78,1.63,-2.6,
34875,1661621471805,-1.2543,-0.4437,0.9737,-19.66,11.35,-1.33,
34876,1661621471805,-1.2098,-0.5721,0.211,-21.17,-1.33,1.49,
34877,1661621471805,-1.2084,-0.1746,0.0342,-15.77,0.02,1.32,
34878,1661621471805,-1.2797,-0.6292,0.5709,-15.95,5.36,3.78,
34879,1661621471805,-1.2333,-0.5242,0.5587,-22.76,4.33,4.97,
34880,1661621471805,-1.2587,0.2116,0.2457,-24.07,0.44,6.05,
34881,1661621471805,-1.1,-0.4188,0.3048,-20.87,9.92,3.69,
34882,1661621471805,-1.2738,-0.157,0.4053,-21.86,-10.13,4.51,
34883,1661621471805,-1.0975,0.2131,0.5001,-21.28,-13.0,6.88,
34884,1661621471805,-1.1888,0.1457,0.4874,-15.57,-4.97,12.9,
34885,1661621471805,-1.1727,0.3591,0.4576,-11.87,8.48,11.62,
34886,1661621471805,-0.8998,0.2595,0.3687,-8.97,2.81,14.35,
34887,1661621471805,-1.0829,0.53,0.4796,-10.25,8.9,3.69,
34888,1661621471820,-0.9559,0.5295,0.2466,-4.17,7.29,6.88,
34889,1661621471820,-1.1317,0.4645,0.3223,-3.18,6.03,10.07,
34890,1661621471820,-0.9945,0.8913,0.4966,-9.48,18.54,4.51,
34891,1661621471820,-0.8431,1.0002,0.0084,-4.59,4.59,5.59,
34892,1661621471820,-0.9388,0.6276,-0.2929,2.23,7.89,10.07,
34893,1661621471820,-0.9843,1.0651,0.6143,4.93,10.25,4.97,
34894,1661621471820,-0.9691,1.1208,0.7081,5.42,15.0,6.42,
34895,1661621471820,-0.889,0.9528,-0.1127,10.03,7.13,7.97,
34896,1661621471820,-0.8563,1.0729,0.0372,13.22,11.35,4.69,
34897,1661621471820,-0.9301,1.215,0.8799,16.21,22.26,0.68,
34898,1661621471820,-0.8886,1.1974,0.5255,23.32,5.52,-2.78,
34899,1661621471820,-0.8309,0.7634,-0.4057,29.12,9.16,-0.33,
34900,1661621471820,-0.8021,0.8815,0.3472,35.1,22.02,-3.33,
34901,1661621471820,-0.9042,1.0231,0.0767,32.2,15.84,-1.97,
34902,1661621471820,-0.7084,0.5646,-0.5849,31.7,10.59,-0.05,
34903,1661621471820,-0.808,0.4758,-0.1288,32.92,1.63,-1.24,
34904,1661621471820,-0.8231,0.4977,0.0655,34.72,-13.5,-4.25,
34905,1661621471820,-0.6698,0.489,-0.1796,42.21,-19.68,-7.07,
34906,1661621471820,-0.889,0.4709,-0.1098,46.79,2.73,-0.97,
34907,1661621471829,-0.744,-0.0047,-0.2607,38.79,-2.59,0.59,
34908,1661621471829,-0.8851,0.5807,0.4532,32.6,3.4,-1.42,
34909,1661621471829,-0.7235,0.3015,-0.0595,36.12,-3.53,-5.44,
34910,1661621471829,-0.7606,-0.0071,-0.6454,39.22,-9.87,-3.97,
34911,1661621471829,-0.6649,0.1706,-0.3198,37.21,10.35,-7.16,
34912,1661621471829,-0.9335,0.2082,0.5093,37.89,7.39,-7.99,
34913,1661621471829,-0.7719,-0.1072,-0.7114,34.7,-9.11,-5.16,
34914,1661621471829,-0.8685,-0.0902,-0.894,32.51,-29.07,-6.8,
34915,1661621471829,-1.0326,-0.0257,0.793,28.2,-5.48,-8.17,
34916,1661621471829,-0.9579,-0.0902,-0.1464,30.33,-20.36,-8.08,
34917,1661621471829,-0.8348,-0.6492,-0.6435,25.52,-18.33,-4.16,
34918,1661621471829,-1.0248,-0.0726,0.8248,19.72,-5.05,-12.73,
34919,1661621471829,-1.0419,-0.4691,0.3673,22.6,-1.76,-10.0,
34920,1661621471829,-0.9535,-0.8172,-0.3491,19.22,-6.84,-14.27,
34921,1661621471829,-1.0018,-0.4871,-0.0956,12.43,-8.1,-9.91,
34922,1661621471829,-1.079,-0.5291,0.2608,12.81,-6.91,-8.44,
34923,1661621471829,-0.9857,-0.8768,-0.1635,12.41,-3.88,-4.34,
34924,1661621471829,-1.0096,-0.8182,-0.4848,8.83,-15.72,-8.81,
34925,1661621471829,-0.9857,-1.0496,-0.3813,-2.5,-34.82,-7.35,
34926,1661621471829,-1.1971,-0.6517,0.4815,-3.37,-13.17,-1.33,
34927,1661621471829,-0.8944,-1.0091,0.0215,-2.79,-9.96,2.31,
34928,1661621471829,-1.1469,-0.8704,-0.267,-10.06,-16.82,0.13,
34929,1661621471829,-1.2084,-0.7088,1.0098,-14.28,-5.48,1.05,
34930,1661621471829,-1.328,-0.7347,0.6548,-11.38,-7.17,-1.79,
34931,1661621471829,-1.1478,-0.4544,-0.246,-13.07,-12.24,-1.33,
34932,1661621471829,-1.3524,-0.5008,0.8013,-18.67,7.39,10.43,
34933,1661621471829,-1.2592,-0.2684,1.2183,-24.26,16.68,8.98,
34934,1661621471829,-1.1991,-0.1932,-0.0663,-21.95,-7.77,8.34,
34935,1661621471829,-1.2269,-0.2132,-0.4721,-21.36,-8.18,3.69,
34936,1661621471829,-1.3573,0.4704,1.1578,-23.97,9.25,4.97,
34937,1661621471829,-1.2391,0.0129,0.3917,-23.05,-7.93,4.51,
34938,1661621471829,-1.1161,0.3547,-0.3559,-21.36,-13.34,5.06,
34939,1661621471829,-1.0809,0.4494,1.0943,-15.76,17.61,3.23,
34940,1661621471845,-1.2889,0.3244,1.1715,-13.76,20.92,7.52,
34941,1661621471845,-1.0765,0.4313,0.0132,-14.78,-2.26,1.14,
34942,1661621471845,-1.0072,0.256,-0.0864,-9.76,-5.31,4.6,
34943,1661621471845,-1.0726,0.5046,0.9117,-5.36,12.71,7.61,
34944,1661621471845,-1.1239,0.5397,0.2486,0.92,9.92,8.89,
34945,1661621471845,-1.0521,0.2302,-0.2387,-0.16,10.25,8.89,
34946,1661621471845,-1.0634,0.4689,0.1915,-8.78,2.73,5.78,
34947,1661621471845,-1.1019,0.6413,0.5567,-6.77,1.46,7.06,
34948,1661621471845,-0.9764,0.4348,0.2296,-1.28,-8.35,4.33,
34949,1661621471845,-0.9501,0.6237,0.2423,6.54,-2.95,6.42,
34950,1661621471845,-0.9203,0.6432,0.4156,11.91,1.04,6.69,
34951,1661621471845,-1.1703,0.8,0.4786,13.51,9.83,5.59,
34952,1661621471845,-0.868,1.0715,0.2257,12.03,18.3,9.42,
34953,1661621471845,-0.7206,0.9289,0.127,13.91,25.15,7.52,
34954,1661621471845,-0.9066,0.986,0.2496,15.51,25.05,7.79,
34955,1661621471845,-0.8886,1.0529,-0.0151,26.53,9.25,5.15,
34956,1661621471845,-0.9252,0.9567,0.0611,29.01,6.7,1.4,
34957,1661621471845,-0.8075,1.2248,0.1177,30.52,1.04,-0.69,
34958,1661621471845,-0.744,1.0119,-0.3476,30.4,-4.12,-5.07,
34959,1661621471845,-0.7572,0.799,-0.0859,31.0,8.82,-5.16,
34960,1661621471845,-0.7997,1.1286,0.0455,33.61,5.36,-8.99,
34961,1661621471845,-0.8876,0.7194,-0.1269,37.89,1.71,-11.82,
34962,1661621471845,-0.8348,0.8068,0.1133,44.71,8.15,-11.45,
34963,1661621471845,-0.7787,0.5373,-0.0346,46.39,0.87,-7.35,
34964,1661621471845,-0.7499,0.4338,-0.2221,43.11,1.8,-12.46,
34965,1661621471845,-0.8124,0.5202,-0.1347,43.49,0.87,-14.82,
34966,1661621471845,-0.8197,-0.2303,-0.477,44.5,-4.21,-10.72,
34967,1661621471845,-0.7963,0.0031,-0.1874,41.01,-0.49,-11.08,
34968,1661621471845,-0.8519,-0.2269,-0.1962,36.61,-7.68,-7.53,
34969,1661621471845,-0.9096,-0.535,-0.4819,35.22,-20.61,-6.43,
34970,1661621471845,-0.9462,-0.3192,0.1348,33.91,-20.28,-3.61,
34971,1661621471845,-0.9237,-0.4505,0.0943,31.01,-15.29,-3.06,
34972,1661621471845,-1.0433,-0.4051,-0.2363,27.01,-14.27,-1.7,
34973,1661621471845,-0.9247,-0.5613,0.0909,24.62,-6.91,-4.25,
34974,1661621471845,-1.1058,-0.4827,0.5006,18.53,-13.26,-6.52,
34975,1661621471861,-0.9769,-0.1116,-0.1244,21.61,-19.52,-8.72,
34976,1661621471861,-0.9696,-0.7054,-0.0566,16.41,-2.78,-1.79,
34977,1661621471861,-0.9662,-0.138,0.5069,13.91,7.13,-6.52,
34978,1661621471861,-0.868,-0.4896,-0.6552,14.32,-19.09,-3.88,
34979,1661621471861,-1.0472,-0.7742,-0.2245,11.71,-16.89,-6.43,
34980,1661621471861,-1.0546,-0.2664,0.3848,3.64,-19.09,-9.36,
34981,1661621471861,-1.08,-0.7132,-0.416,-0.18,-13.34,-4.89,
34982,1661621471861,-1.0424,-0.5364,-0.2226,1.43,-8.35,-5.99,
34983,1661621471861,-1.0985,-0.7879,0.5074,0.24,-7.25,-2.51,
34984,1661621471861,-1.1425,-0.7601,0.5455,-9.38,-7.25,-4.06,
34985,1661621471861,-1.1752,-0.4793,-0.0634,-8.26,-7.08,-2.34,
34986,1661621471861,-1.1835,-1.0228,0.1124,-9.18,7.22,-0.51,
34987,1661621471861,-1.1796,-0.5843,0.7032,-14.76,11.35,-3.15,
34988,1661621471861,-1.182,-0.4974,0.1168,-19.88,-5.22,-4.43,
34989,1661621471861,-1.1259,-0.908,-0.1015,-19.48,-22.9,-1.7,
34990,1661621471861,-1.372,-0.347,0.8048,-16.98,-0.82,4.51,
34991,1661621471861,-1.1547,-0.5486,0.232,-21.48,0.27,8.07,
34992,1661621471861,-1.2489,-0.265,-0.0385,-26.07,-4.46,8.8,
34993,1661621471861,-1.1923,-0.0862,0.7061,-22.87,-6.07,11.26,
34994,1661621471861,-1.3305,-0.2923,0.7369,-21.17,-13.76,10.61,
34995,1661621471861,-1.0043,0.2795,0.1417,-22.58,0.27,2.86,
34996,1661621471861,-1.0638,0.2121,0.5894,-21.55,4.67,4.05,
34997,1661621471861,-1.1151,0.5412,0.6348,-15.77,11.95,5.15,
34998,1661621471861,-1.0326,0.5871,-0.1572,-5.69,2.9,8.98,
34999,1661621471861,-0.849,0.2902,-0.1581,-2.07,12.37,9.88,
35000,1661621471861,-0.9965,0.6677,0.2784,-12.87,0.7,8.52,
35001,1661621471861,-1.0951,0.8439,0.5591,-18.26,-0.49,3.23,
35002,1661621471861,-1.0013,0.7487,0.1783,-8.68,-5.14,4.14,
35003,1661621471861,-0.9774,0.8644,-0.165,3.01,-3.53,3.78,
35004,1661621471861,-0.933,0.8234,0.2955,5.64,17.1,3.78,
35005,1661621471861,-0.9696,1.0529,0.9346,6.54,24.38,-1.88,
35006,1661621471861,-0.9154,0.8317,-0.0414,7.91,22.95,-0.88,
35007,1661621471861,-0.931,0.5554,0.0777,9.42,20.23,-1.33,
35008,1661621471876,-0.9818,0.9255,0.4976,11.62,17.03,-1.7,
35009,1661621471876,-0.9491,1.1887,0.3443,22.21,8.15,-0.78,
35010,1661621471876,-0.747,0.5295,-0.4238,25.0,-0.06,6.14,
35011,1661621471876,-0.954,0.8215,0.0533,22.91,8.06,1.32,
35012,1661621471876,-0.7831,0.8361,0.2476,27.61,11.95,4.33,
35013,1661621471876,-0.9721,0.7321,-0.0449,26.01,0.18,3.14,
35014,1661621471876,-0.9511,0.6774,-0.0019,29.9,0.11,6.14,
35015,1661621471876,-0.8012,0.6164,0.2901,31.0,-6.49,2.04,
35016,1661621471876,-0.7733,0.8264,0.1251,35.71,-2.43,-0.23,
35017,1661621471876,-0.5941,0.6149,-0.0693,42.72,3.91,-2.34,
35018,1661621471876,-0.9071,0.4626,-0.1337,39.91,10.51,0.41,
35019,1661621471876,-0.7069,0.7062,-0.3198,37.82,5.26,-2.78,
35020,1661621471876,-0.8392,0.6183,-0.0522,37.3,5.52,-3.7,
35021,1661621471876,-0.7352,0.5881,-0.1767,36.72,-2.35,-6.98,
35022,1661621471876,-0.6522,0.3259,-1.101,38.79,-24.25,-6.08,
35023,1661621471876,-0.8173,0.2795,0.0294,37.42,-8.7,-7.25,
35024,1661621471876,-0.9481,0.3405,0.4639,38.41,-4.21,-4.71,
35025,1661621471876,-0.7264,0.0661,-0.2939,38.5,-7.84,-6.61,
35026,1661621471876,-0.8007,0.0319,-0.4355,34.6,-9.03,-12.91,
35027,1661621471876,-1.0419,-0.1365,0.5191,33.41,-8.77,-8.54,
35028,1661621471887,-0.994,-0.3475,0.4366,29.72,-7.0,-9.54,
35029,1661621471887,-0.9564,-0.3426,-0.4335,29.82,-9.87,-8.99,
35030,1661621471887,-0.9159,-0.5384,-0.0698,28.33,-6.41,-8.44,
35031,1661621471887,-0.9984,-0.5125,0.4918,26.53,-0.92,-6.7,
35032,1661621471887,-0.9188,-0.5662,0.1485,23.63,-10.21,-5.9,
35033,1661621471887,-0.9618,-0.9144,-0.8578,17.32,-27.04,-2.34,
35034,1661621471887,-1.1014,-0.8182,0.1324,10.61,-13.34,-6.89,
35035,1661621471887,-0.9467,-0.6683,0.4068,7.01,-16.22,-5.99,
35036,1661621471887,-1.016,-0.805,-0.8315,6.54,-27.21,-7.44,
35037,1661621471887,-1.0414,-1.0677,0.1715,8.41,-22.22,-5.44,
35038,1661621471887,-1.3265,-0.6551,0.9586,0.81,-14.62,-5.25,
35039,1661621471887,-1.0165,-0.5096,-0.3071,-1.37,-14.62,-7.53,
35040,1661621471887,-1.1625,-0.9158,-0.0405,-4.59,-3.02,-4.8,
35041,1661621471887,-1.1625,-0.4305,0.9898,-11.48,8.32,-5.99,
35042,1661621471887,-1.1171,-0.3611,0.5421,-8.86,-11.47,-3.79,
35043,1661621471887,-1.2035,-0.6009,-0.4003,-9.48,-5.91,1.95,
35044,1661621471887,-1.264,-0.2874,0.4361,-17.28,-6.84,3.14,
35045,1661621471887,-1.2416,-0.4529,0.439,-24.77,-3.11,0.41,
35046,1661621471887,-1.1215,-0.0819,0.1592,-23.87,-1.76,0.22,
35047,1661621471887,-1.1078,-0.1478,0.2979,-15.37,1.11,2.31,
35048,1661621471887,-1.3007,-0.3148,0.4078,-17.74,-6.32,6.24,
35049,1661621471887,-1.3129,0.2868,0.6597,-19.56,8.56,2.77,
35050,1661621471887,-1.3505,0.0348,0.5914,-19.16,2.9,-1.33,
35051,1661621471887,-1.3251,-0.1805,0.2164,-21.26,4.93,2.31,
35052,1661621471887,-1.1664,0.3947,0.295,-13.57,13.81,1.4,
35053,1661621471887,-1.0101,0.0051,0.3521,-13.47,16.17,4.97,
35054,1661621471887,-1.1898,0.3151,0.3194,-12.67,2.14,6.42,
35055,1661621471887,-1.0951,0.3312,0.2393,-7.97,-18.16,7.61,
35056,1661621471887,-0.9457,-0.035,0.127,-9.76,-18.16,7.97,
35057,1661621471887,-1.1054,0.5827,0.6129,-2.77,1.04,9.88,
35058,1661621471887,-0.9901,0.218,0.2335,-1.26,4.33,12.35,
35059,1661621471887,-1.139,0.6628,0.3253,-5.38,12.04,8.98,
35060,1661621471887,-0.9613,0.9133,0.7281,-6.59,23.12,13.25,
35061,1661621471887,-1.059,0.5212,0.5064,-2.37,8.32,13.62,
35062,1661621471887,-0.9081,0.9279,0.1304,6.23,6.29,8.98,
35063,1661621471887,-0.9384,0.8967,0.4927,10.52,6.87,6.24,
35064,1661621471902,-1.1386,0.7824,0.5084,12.12,19.64,7.33,
35065,1661621471902,-0.8568,1.1794,-0.2748,13.11,9.49,1.58,
35066,1661621471902,-0.8441,1.0749,-0.2919,14.03,10.76,-2.07,
35067,1661621471902,-0.8827,1.2599,0.5689,15.71,16.1,-5.71,
35068,1661621471902,-0.8251,1.0651,-0.041,26.4,-0.73,-4.52,
35069,1661621471902,-0.8554,1.0944,0.0928,31.01,3.66,-4.43,
35070,1661621471902,-0.8256,1.2575,0.192,32.81,1.97,-9.73,
35071,1661621471902,-0.8768,0.9069,0.1895,35.12,11.86,-5.16,
35072,1661621471902,-0.7401,0.779,0.1573,35.71,22.26,-5.62,
35073,1661621471902,-0.785,0.7653,-0.3071,38.72,15.0,-6.8,
35074,1661621471902,-0.6615,0.404,-0.2221,44.12,11.28,-3.88,
35075,1661621471902,-0.7318,0.5046,0.0543,42.82,-0.15,-7.8,
35076,1661621471902,-0.8095,0.5187,-0.2748,44.41,-11.83,-9.73,
35077,1661621471902,-0.6688,-0.1409,-1.0497,42.3,-22.05,-7.16,
35078,1661621471902,-0.8685,0.3283,0.2149,40.92,7.13,-10.27,
35079,1661621471902,-0.6732,0.0319,0.2466,39.5,-3.53,-8.54,
35080,1661621471902,-0.8129,-0.1653,-0.8217,38.02,-25.77,-9.54,
35081,1661621471902,-0.8305,-0.2049,0.2208,35.7,-22.05,-8.26,
35082,1661621471902,-1.1312,-0.036,0.5967,31.61,2.64,-2.78,
35083,1661621471902,-0.7909,0.0671,-0.0366,31.21,1.21,-8.35,
35084,1661621471902,-0.8046,-0.4168,-0.6567,31.23,1.88,-5.25,
35085,1661621471902,-0.9916,-0.137,0.6651,26.92,1.21,-8.81,
35086,1661621471902,-0.932,-0.0633,-0.1176,28.22,-22.14,-10.99,
35087,1661621471902,-0.9965,-0.4837,-0.6533,28.33,-24.6,-5.07,
35088,1661621471902,-0.9911,-0.1063,0.2564,18.82,-12.83,-9.36,
35089,1661621471902,-0.9755,-0.4822,-0.0283,15.22,-4.55,-4.61,
35090,1661621471902,-0.911,-0.3812,-0.3368,14.82,-9.8,-6.52,
35091,1661621471902,-0.9755,-0.4656,0.1314,14.53,-14.19,-7.44,
35092,1661621471902,-1.0643,-0.5233,0.2491,12.43,-16.89,-9.82,
35093,1661621471902,-1.0521,-0.7601,-0.2851,11.63,-15.29,-7.89,
35094,1661621471902,-1.0443,-0.9485,-0.1269,6.41,8.15,-5.99,
35095,1661621471902,-1.0726,-0.6512,0.2632,-2.36,-4.38,-7.62,
35096,1661621471902,-1.0961,-0.6385,-0.1098,-5.07,-20.71,-5.53,
35097,1661621471902,-0.9799,-1.1209,-0.0551,-3.06,-19.85,-4.89,
35098,1661621471918,-1.1718,-0.6873,0.3267,-7.24,-0.92,-8.63,
35099,1661621471918,-1.0731,-0.993,-0.016,-12.67,-8.7,-4.61,
35100,1661621471918,-1.3251,-0.7371,0.4796,-18.37,-10.21,-3.52,
35101,1661621471918,-1.1659,-0.7171,0.522,-16.56,-15.46,2.5,
35102,1661621471918,-1.3632,-0.5076,0.2877,-19.77,-7.42,4.79,
35103,1661621471920,-1.2284,-0.387,0.6715,-18.67,14.4,8.34,
35104,1661621471920,-1.1141,-0.5003,0.4898,-22.56,2.47,7.7,
35105,1661621471920,-1.2631,0.1174,0.4132,-22.27,2.56,1.76,
35106,1661621471920,-1.3397,-0.0731,0.4634,-24.58,-9.37,6.24,
35107,1661621471920,-1.3729,0.0202,0.2466,-18.78,-1.42,5.5,
35108,1661621471920,-1.1552,0.6159,0.1588,-16.56,5.86,8.07,
35109,1661621471920,-1.1,0.3527,0.3326,-17.47,4.17,9.07,
35110,1661621471920,-1.0785,0.4587,0.4307,-17.16,7.63,1.67,
35111,1661621471920,-1.0809,0.5182,0.3736,-14.06,2.56,6.05,
35112,1661621471920,-1.0585,0.4431,0.1007,-13.56,-2.26,6.14,
35113,1661621471920,-1.0809,0.7775,0.3897,-6.46,-8.27,5.32,
35114,1661621471920,-1.0331,0.5964,0.7115,-2.28,9.83,4.97,
35115,1661621471920,-1.0233,0.5822,0.4009,-2.77,13.81,1.86,
35116,1661621471920,-1.0668,0.7707,-0.3554,2.62,7.22,5.24,
35117,1661621471920,-1.0287,0.4152,0.523,5.42,21.93,7.7,
35118,1661621471920,-0.9349,0.6144,0.8975,2.43,19.81,2.5,
35119,1661621471920,-1.0394,0.8415,-0.0029,4.23,7.63,4.69,
35120,1661621471920,-0.806,0.3517,-0.4301,10.31,2.3,5.5,
35121,1661621471920,-1.0941,0.9855,0.9117,14.32,14.48,-0.88,
35122,1661621471920,-0.8788,0.7204,0.3463,15.83,5.94,0.31,
35123,1661621471920,-0.7216,0.5353,-0.3749,20.51,-4.04,3.5,
35124,1661621471920,-0.8617,0.8473,0.1548,21.83,9.58,6.78,
35125,1661621471920,-0.9286,0.9416,0.9219,22.92,14.65,1.49,
35126,1661621471920,-0.9735,1.0681,-0.0331,27.23,13.98,2.04,
35127,1661621471920,-0.7728,1.0319,-0.3744,30.33,11.86,0.68,
35128,1661621471920,-0.7499,0.7399,0.0372,30.72,12.28,6.78,
35129,1661621471920,-0.6683,1.2136,0.1739,36.2,7.29,-1.79,
35130,1661621471920,-0.5263,0.7253,-0.7612,45.69,-1.85,0.68,
35131,1661621471920,-0.6786,0.5515,-0.3276,44.71,-0.32,-4.06,
35132,1661621471933,-0.8021,0.9499,-0.0488,38.12,-6.58,-7.71,
35133,1661621471933,-0.8002,0.8415,-0.0966,37.51,-1.76,-7.71,
35134,1661621471933,-0.6556,0.4108,-0.3867,41.2,-4.88,-6.8,
35135,1661621471933,-0.8036,0.3708,-0.246,46.79,-10.9,-3.7,
35136,1661621471933,-0.912,0.2243,0.3453,48.0,-4.88,-5.62,
35137,1661621471933,-0.7733,0.1213,-0.0141,43.8,-2.85,-3.97,
35138,1661621471933,-0.868,-0.2796,-0.2978,39.69,5.36,-2.43,
35139,1661621471933,-0.8505,-0.2264,0.0865,30.81,-0.15,-4.98,
35140,1661621471933,-1.0824,-0.0081,0.1348,34.72,-5.31,-6.35,
35141,1661621471933,-0.7709,-0.6605,-0.2118,35.71,-13.5,-4.43,
35142,1661621471933,-0.9203,-0.5286,-0.4511,35.03,-21.29,-10.72,
35143,1661621471933,-1.0009,-0.5169,0.108,25.23,-14.36,-4.98,
35144,1661621471933,-0.913,-0.7381,0.3331,21.83,-14.86,-9.54,
35145,1661621471933,-0.9545,-0.554,-0.2944,15.81,-19.42,-8.44,
35146,1661621471933,-1.1542,-0.7132,-0.0751,12.53,-18.25,-4.25,
35147,1661621471933,-1.0443,-0.4891,0.5274,11.53,-10.97,-5.44,
35148,1661621471933,-1.0219,-0.6776,0.0313,14.23,-9.11,-1.52,
35149,1661621471933,-1.0248,-0.5198,-0.3671,11.73,-3.53,-3.24,
35150,1661621471933,-0.9442,-0.6155,0.0811,5.62,-10.54,-2.16,
35151,1661621471942,-1.0223,-0.5306,0.4498,-2.86,-5.65,-2.34,
35152,1661621471942,-1.1307,-0.3465,-0.1977,-1.17,-26.03,-3.7,
35153,1661621471942,-0.9847,-0.7244,-0.7426,-2.79,-13.34,2.13,
35154,1661621471942,-1.1078,-0.4944,0.8467,-9.97,-4.55,-7.8,
35155,1661621471942,-1.1107,-0.2967,0.2242,-12.66,-7.68,1.49,
35156,1661621471942,-1.1942,-0.7484,-0.207,-12.06,-9.2,-2.07,
35157,1661621471942,-1.308,-0.4744,0.8433,-15.86,7.46,-4.98,
35158,1661621471942,-1.2147,-0.5247,0.524,-20.85,7.13,-4.89,
35159,1661621471942,-1.1893,-0.3074,0.0811,-20.76,5.19,-1.61,
35160,1661621471942,-1.3178,-0.5511,0.4322,-12.57,5.94,-1.7,
35161,1661621471942,-1.2015,-0.8045,0.3819,-15.27,-5.14,3.23,
35162,1661621471947,-1.3529,0.1325,0.4947,-16.98,-2.01,3.96,
35163,1661621471947,-1.1405,-0.3709,0.1715,-18.18,-6.24,7.43,
35164,1661621471947,-1.1947,-0.4432,0.0738,-23.46,-2.26,3.96,
35165,1661621471947,-1.1449,0.3532,0.8209,-28.77,-3.11,4.05,
35166,1661621471947,-1.1249,0.0412,0.2173,-11.59,-18.92,6.14,
35167,1661621471947,-1.1127,0.4162,0.2506,-2.68,1.88,7.97,
35168,1661621471947,-0.8934,0.2678,0.5694,-6.77,8.99,8.16,
35169,1661621471947,-1.2001,0.3771,0.5118,-10.17,12.79,9.07,
35170,1661621471947,-1.1249,0.7912,0.5089,-15.16,13.14,6.97,
35171,1661621471947,-1.1122,0.2853,0.1661,-9.76,3.57,7.88,
35172,1661621471947,-1.016,0.6349,0.1671,-4.37,3.14,2.04,
35173,1661621471947,-0.9222,1.1037,0.1988,1.03,-0.56,6.78,
35174,1661621471947,-1.0355,0.5651,0.2593,6.93,5.43,4.6,
35175,1661621471947,-0.91,1.1486,0.1885,5.32,5.52,0.5,
35176,1661621471947,-0.9618,1.2121,0.1783,4.32,11.28,3.23,
35177,1661621471947,-1.0682,0.9479,0.3228,5.01,15.75,0.77,
35178,1661621471947,-0.9608,1.1169,0.2017,8.03,11.69,2.95,
35179,1661621471947,-0.9105,1.0402,0.2432,16.81,13.21,2.59,
35180,1661621471955,-0.8622,1.0368,0.3492,25.61,18.63,-0.69,
35181,1661621471955,-0.8812,1.1266,0.0142,30.92,16.1,0.68,
35182,1661621471955,-0.83,0.6921,0.1773,33.42,22.26,2.22,
35183,1661621471955,-0.8471,0.9714,0.003,29.21,14.74,-3.42,
35184,1661621471955,-0.8846,0.9484,-0.2621,28.11,3.14,-3.33,
35185,1661621471955,-0.7313,0.4601,-0.4018,33.51,-2.43,-7.35,
35186,1661621471955,-0.8217,0.6071,-0.0644,39.1,1.3,-6.35,
35187,1661621471955,-0.5614,0.4562,-0.0663,45.2,3.33,-5.71,
35188,1661621471955,-0.8197,0.3766,-0.2729,43.71,-2.59,-8.17,
35189,1661621471955,-0.7816,0.2116,-0.3012,35.21,-18.33,-8.81,
35190,1661621471955,-0.8578,0.2927,0.2266,37.41,-13.43,-3.42,
35191,1661621471955,-0.829,0.5807,0.4849,37.7,6.36,-9.54,
35192,1661621471955,-0.767,0.1574,-0.5156,41.49,0.02,-4.98,
35193,1661621471955,-0.9349,0.0056,-0.3974,36.69,8.48,-9.08,
35194,1661621471955,-0.9027,0.5031,0.627,33.01,5.52,-12.18,
35195,1661621471955,-0.806,-0.0194,-0.4833,37.62,-11.57,-8.17,
35196,1661621471955,-0.8295,-0.0408,-0.8447,40.61,-25.77,-14.73,
35197,1661621471955,-0.8934,-0.0716,0.44,29.7,-3.11,-7.89,
35198,1661621471955,-1.0526,0.0046,0.6622,25.82,-1.33,-9.18,
35199,1661621471955,-0.8671,-0.2767,-0.666,30.22,-28.4,-9.27,
35200,1661621471955,-0.9989,-0.45,-0.2519,32.61,-10.47,-10.09,
35201,1661621471955,-1.1063,-0.1859,0.8868,21.0,-9.37,-7.16,
35202,1661621471955,-0.9857,-0.6468,-0.268,20.32,-6.91,-5.25,
35203,1661621471955,-0.8837,-0.6873,-0.2421,14.23,-1.92,-4.71,
35204,1661621471955,-1.0399,-0.4866,0.2491,15.62,1.46,-11.18,
35205,1661621471955,-0.8388,-0.7967,-0.1513,12.23,-2.85,-10.9,
35206,1661621471955,-1.0546,-0.8099,-0.4018,8.43,-20.02,-10.9,
35207,1661621471955,-1.0638,-0.9451,-0.2783,8.54,-28.23,-7.16,
35208,1661621471955,-1.2533,-0.887,0.2466,3.33,-18.68,-8.99,
35209,1661621471955,-1.1303,-0.7601,0.5411,-4.97,-0.4,-5.07,
35210,1661621471955,-0.9022,-0.8997,-0.0961,-9.5,-21.04,-6.8,
35211,1661621471955,-1.2098,-0.8631,-0.0624,-8.98,-16.82,-1.61,
35212,1661621471955,-1.1547,-0.8167,0.9634,-9.56,-6.91,2.77,
35213,1661621471971,-1.3075,-0.657,0.4014,-16.06,0.7,5.06,
35214,1661621471971,-1.2343,-0.4266,0.0006,-18.67,2.64,6.14,
35215,1661621471971,-1.3314,-0.4378,0.8282,-23.28,7.96,1.49,
35216,1661621471971,-1.2372,-0.0945,0.4381,-20.76,0.44,4.14,
35217,1661621471971,-1.1381,-0.2254,-0.2221,-21.95,-15.63,-0.05,
35218,1661621471971,-1.2865,0.0217,0.1011,-18.66,-2.01,4.6,
35219,1661621471971,-1.3207,0.069,0.8868,-22.38,-0.66,5.5,
35220,1661621471974,-1.2084,0.0969,0.1744,-20.87,-5.22,4.05,
35221,1661621471974,-1.0682,0.3752,0.1978,-18.46,5.52,2.31,
35222,1661621471974,-1.1117,0.2883,0.7628,-11.77,12.95,-1.79,
35223,1661621471974,-1.2064,0.2267,0.6563,-11.38,8.65,-1.61,
35224,1661621471974,-1.0267,0.384,0.1143,-10.86,-2.59,1.67,
35225,1661621471974,-1.0848,0.1701,0.0084,-5.87,2.23,2.77,
35226,1661621471974,-1.1371,0.4562,0.6431,-7.27,4.84,7.06,
35227,1661621471974,-1.142,0.508,0.2974,-5.06,8.65,3.6,
35228,1661621471974,-0.9755,0.3561,-0.1225,-6.08,1.3,6.05,
35229,1661621471974,-1.0516,0.3254,-0.0112,-3.49,0.44,12.08,
35230,1661621471974,-1.1122,0.4938,1.0108,-1.18,2.64,9.61,
35231,1661621471974,-1.0282,0.7136,0.2725,1.62,-3.11,9.16,
35232,1661621471974,-0.9945,0.7248,-0.0864,5.03,-2.69,10.52,
35233,1661621471974,-0.9237,0.4948,0.5137,8.72,14.74,11.26,
35234,1661621471974,-1.1058,1.0749,0.8673,5.91,26.41,10.34,
35235,1661621471974,-0.788,1.0065,-0.2836,13.71,17.7,8.62,
35236,1661621471981,-1.017,0.8205,0.0215,16.71,17.7,4.33,
35237,1661621471981,-0.912,1.1442,0.5489,20.62,16.68,1.32,
35238,1661621471981,-0.8554,1.133,-0.0458,26.42,-7.68,1.14,
35239,1661621471981,-0.8676,1.0412,-0.3046,31.1,1.3,3.87,
35240,1661621471981,-0.8602,1.2131,0.1397,32.49,6.45,-0.33,
35241,1661621471981,-0.7582,0.8244,-0.144,32.11,9.25,4.14,
35242,1661621471981,-0.7372,1.069,-0.1,29.61,12.79,-5.99,
35243,1661621471981,-0.7279,1.05,-0.0263,36.9,6.53,-3.79,
35244,1661621471981,-0.7767,0.5051,-0.0859,43.71,5.43,-5.9,
35245,1661621471981,-0.7797,0.8742,-0.1655,43.49,0.78,-9.27,
35246,1661621471981,-0.7924,0.3171,-0.2812,44.61,6.87,-6.35,
35247,1661621471981,-0.7889,0.1076,-0.4189,41.82,-3.28,-7.16,
35248,1661621471981,-0.9003,0.4826,-0.2089,44.9,0.87,-11.08,
35249,1661621471981,-0.8749,-0.2,-0.1484,43.42,-10.73,-7.53,
35250,1661621471981,-0.8226,0.0119,-0.1899,40.52,-18.16,-13.01,
35251,1661621471981,-0.7719,-0.1307,-0.0629,40.32,-16.65,-7.35,
35252,1661621471981,-0.975,-0.533,-0.1161,34.92,-8.77,-13.01,
35253,1661621471981,-0.8724,-0.2752,0.147,28.91,0.02,-8.54,
35254,1661621471981,-0.9657,-0.6146,0.1187,29.72,-12.16,-10.44,
35255,1661621471981,-0.9467,-0.1146,-0.0683,28.62,-14.44,-5.8,
35256,1661621471981,-0.9257,-0.5809,0.1168,34.12,-15.53,-0.97,
35257,1661621471981,-1.077,-0.3651,0.0489,19.11,-10.3,-0.69,
35258,1661621471981,-0.9013,-0.3011,-0.3666,20.61,-16.98,-2.87,
35259,1661621471981,-1.0131,-0.6409,0.1964,21.32,-2.01,-0.23,
35260,1661621471981,-0.8934,-0.2513,0.1529,15.83,-13.34,-6.61,
35261,1661621471981,-0.8641,-0.3753,-0.4428,9.82,-18.59,-4.71,
35262,1661621471981,-1.0302,-0.7645,-0.0165,7.13,-12.24,-8.81,
35263,1661621471981,-1.0888,-0.1619,0.2779,10.03,-8.27,-7.25,
35264,1661621471981,-1.1781,-0.9007,-0.1186,7.12,-5.31,-9.36,
35265,1661621471981,-1.0839,-0.5926,-0.0712,-1.58,-9.37,-13.01,
35266,1661621471981,-1.0985,-0.7972,0.2691,-1.98,-9.03,-5.07,
35267,1661621471981,-1.0819,-0.6878,0.2925,-1.37,-0.06,-6.35,
35268,1661621471981,-1.0248,-0.6277,-0.1616,-5.18,0.7,-6.98,
35269,1661621471981,-1.1049,-0.9788,-0.1523,-12.48,-5.91,-4.71,
35270,1661621471997,-1.3021,-0.742,0.6563,-19.36,-7.77,-8.9,
35271,1661621471997,-1.243,-0.3704,0.3297,-14.66,-8.01,1.05,
35272,1661621471997,-1.2221,-1.0755,-0.2328,-11.76,-6.58,4.51,
35273,1661621471997,-1.3969,-0.1795,0.9561,-22.56,11.86,5.96,
35274,1661621471997,-1.1644,-0.3758,0.7925,-23.97,-8.7,7.33,
35275,1661621471997,-1.2059,-0.4583,-0.1757,-19.86,-17.4,8.71,
35276,1661621471997,-1.1239,0.0134,0.9298,-17.95,3.4,5.96,
35277,1661621471997,-1.143,0.0798,0.8428,-21.05,10.35,10.07,
35278,1661621471997,-1.1737,0.339,0.1295,-17.86,5.1,7.06,
35279,1661621471997,-1.0048,0.2609,-0.0283,-14.38,11.44,13.71,
35280,1661621471997,-1.078,0.3605,0.7984,-15.05,10.93,9.33,
35281,1661621471997,-0.9774,0.7194,0.0635,-12.48,-10.97,6.97,
35282,1661621471997,-1.0028,0.2599,-0.2426,-6.49,-12.83,6.14,
35283,1661621471997,-1.0721,0.9089,0.5606,-8.78,-1.42,2.68,
35284,1661621471997,-0.9813,1.0178,0.7569,-5.26,14.07,9.07,
35285,1661621471997,-0.9935,0.5861,0.2266,-2.07,15.5,5.15,
35286,1661621471997,-0.8402,0.8786,0.0718,-1.08,14.24,0.31,
35287,1661621471997,-1.035,0.8972,0.7681,1.21,19.13,4.33,
35288,1661621471997,-1.0702,0.8473,0.7462,4.43,18.3,3.78,
35289,1661621471997,-0.9457,0.7038,-0.0209,8.93,12.37,0.59,
35290,1661621471997,-0.8402,0.7736,0.1363,13.42,15.33,1.49,
35291,1661621471997,-1.0477,1.111,0.42,11.83,8.9,1.05,
35292,1661621471997,-0.8295,0.6476,-0.2436,20.03,3.23,1.58,
35293,1661621471997,-0.7689,0.5124,-0.3452,24.22,3.91,4.14,
35294,1661621471997,-0.9594,0.8586,0.274,25.7,10.42,4.33,
35295,1661621471997,-0.8461,0.9069,0.2769,27.91,4.33,2.41,
35296,1661621471997,-0.9491,0.6389,-0.0727,27.43,-3.11,0.22,
35297,1661621471997,-0.8807,0.5837,0.0631,27.23,-4.29,2.41,
35298,1661621471997,-0.8143,0.8093,0.3575,32.51,3.57,-1.79,
35299,1661621471997,-0.7294,0.8527,0.0831,39.4,13.05,2.41,
35300,1661621471997,-0.5951,0.5397,-0.4804,41.4,12.45,2.86,
35301,1661621471997,-0.7426,0.7595,-0.1308,36.61,15.17,-1.06,
35302,1661621471997,-0.7797,0.8137,-0.1362,37.12,-7.17,0.41,
35303,1661621472012,-0.7743,0.5104,-0.3564,37.12,-9.37,-6.61,
35304,1661621472012,-0.6395,0.6105,-0.4452,41.71,-16.98,-8.35,
35305,1661621472012,-0.7089,0.4035,-0.624,42.09,-10.04,-7.99,
35306,1661621472012,-0.8207,0.2209,0.1539,36.8,-1.92,-7.99,
35307,1661621472012,-0.8778,0.3024,0.1251,42.12,-4.29,-6.98,
35308,1661621472012,-0.7684,0.0754,-0.2446,40.79,-14.02,-8.81,
35309,1661621472012,-0.913,0.0217,-0.1357,36.8,-12.24,-14.64,
35310,1661621472012,-0.8744,-0.2039,0.4581,31.01,8.73,-14.36,
35311,1661621472012,-0.9847,-0.3353,0.2662,32.22,-6.58,-11.54,
35312,1661621472012,-0.9994,-0.4647,-0.5497,33.01,-12.24,-12.91,
35313,1661621472012,-1.0126,-0.4935,0.1378,31.9,-9.96,-8.17,
35314,1661621472012,-1.0033,-0.5423,0.1915,25.7,-10.9,-10.44,
35315,1661621472012,-0.8412,-0.7396,-0.6899,23.0,-24.0,-6.7,
35316,1661621472012,-0.9681,-1.0018,-0.1459,16.12,-15.12,-5.53,
35317,1661621472012,-0.9725,-0.574,0.5782,10.72,-11.23,-9.18,
35318,1661621472012,-0.932,-0.678,-0.3725,9.44,-26.96,-9.18,
35319,1661621472012,-1.0927,-0.869,-0.2963,11.71,-22.05,-6.43,
35320,1661621472012,-1.1249,-0.8109,0.732,5.03,-7.25,-2.34,
35321,1661621472012,-1.1039,-0.5779,0.2969,-0.16,-1.5,-4.8,
35322,1661621472012,-1.0555,-0.5975,-0.2202,-4.59,-9.54,-4.16,
35323,1661621472012,-1.1146,-0.7923,-0.0517,-5.67,-9.2,-2.6,
35324,1661621472012,-1.0936,-0.5301,0.5572,-7.27,-6.65,-4.89,
35325,1661621472012,-1.0243,-0.4695,-0.0097,-11.48,-10.38,0.41,
35326,1661621472012,-1.1693,-0.4139,0.1431,-14.37,-0.73,-0.51,
35327,1661621472012,-1.2401,-0.407,0.4849,-14.78,-5.91,4.05,
35328,1661621472012,-1.3231,-0.3748,0.5338,-15.97,-2.52,2.77,
35329,1661621472012,-1.1508,-0.1478,0.1226,-20.67,-11.57,2.59,
35330,1661621472012,-1.2557,-0.0892,0.5386,-15.97,8.15,2.31,
35331,1661621472012,-1.3192,-0.3289,0.6876,-15.47,13.38,1.76,
35332,1661621472012,-1.3065,-0.0872,0.4551,-17.28,11.52,-1.15,
35333,1661621472012,-1.2284,-0.1771,0.1861,-16.85,-0.23,1.86,
35334,1661621472012,-1.3016,0.0422,0.3292,-17.18,-5.65,0.31,
35335,1661621472012,-1.1229,0.2609,0.2491,-15.36,-0.32,5.59,
35336,1661621472012,-1.0951,-0.075,0.109,-11.77,-1.76,9.97,
35337,1661621472028,-1.2191,0.3073,0.2696,-10.87,-0.32,7.61,
35338,1661621472028,-1.0809,0.2907,0.3756,-10.38,-6.41,9.79,
35339,1661621472028,-1.1454,0.2394,0.4678,-13.67,-4.81,10.8,
35340,1661621472028,-1.0409,0.653,0.4132,-2.57,-10.04,7.88,
35341,1661621472028,-1.1893,0.2575,0.1495,-0.07,-2.26,13.53,
35342,1661621472028,-0.9789,0.7282,0.607,-0.88,25.39,11.62,
35343,1661621472028,-1.0707,0.8635,0.378,-0.27,30.98,11.53,
35344,1661621472028,-1.0878,0.7336,0.088,3.23,20.74,10.43,
35345,1661621472028,-0.9535,0.8112,0.2208,5.22,11.35,6.51,
35346,1661621472028,-0.9901,0.9523,0.2491,8.22,8.9,4.42,
35347,1661621472028,-0.8915,1.2634,-0.1777,10.31,0.18,-0.6,
35348,1661621472028,-0.8436,1.1486,-0.2597,16.1,-1.59,3.78,
35349,1661621472028,-0.9965,0.9763,0.3858,17.81,12.28,0.13,
35350,1661621472028,-0.9281,1.2306,0.1783,21.61,8.9,0.04,
35351,1661621472028,-0.9042,1.1076,0.0987,24.91,11.95,4.42,
35352,1661621472028,-0.8773,1.0759,0.3614,31.0,19.47,-0.23,
35353,1661621472028,-0.8656,0.9357,0.1402,36.81,12.12,-2.6,
35354,1661621472028,-0.7924,0.8088,-0.0668,38.81,9.66,-4.71,
35355,1661621472028,-0.8026,0.8278,-0.0019,42.21,4.5,-7.16,
35356,1661621472028,-0.7162,0.4211,-0.4907,44.52,2.73,-5.99,
35357,1661621472028,-0.6434,0.5388,-0.3242,43.91,4.67,-5.99,
35358,1661621472028,-0.8114,0.5671,-0.2206,43.69,2.9,-5.16,
35359,1661621472028,-0.7294,0.0104,-0.6767,41.71,-18.42,-2.78,
35360,1661621472028,-0.8563,0.0495,-0.3495,39.22,-23.32,-4.8,
35361,1661621472044,-0.8178,0.2082,0.5132,40.7,-18.42,-0.97,
35362,1661621472044,-0.7806,-0.1038,-0.457,42.61,-18.84,-2.78,
35363,1661621472044,-0.7972,0.0075,-0.1542,40.2,4.84,0.22,
35364,1661621472044,-0.889,-0.0672,0.692,34.2,11.18,-0.42,
35365,1661621472044,-0.8348,0.0895,-0.1244,33.91,-0.06,-3.52,
35366,1661621472044,-0.8495,-0.1859,-0.4999,36.81,-12.5,-2.78,
35367,1661621472044,-1.0521,-0.2401,0.0533,32.31,-6.24,-7.99,
35368,1661621472044,-0.953,0.0466,0.3189,24.51,-18.92,-10.72,
35369,1661621472044,-0.8124,-0.3743,-0.6161,24.33,-17.06,-14.1,
35370,1661621472044,-0.8837,-0.181,-0.1118,27.21,-13.0,-11.36,
35371,1661621472044,-0.9125,-0.3533,0.2779,17.92,-12.5,-17.2,
35372,1661621472044,-0.9789,-0.4027,-0.1,14.01,-15.79,-10.72,
35373,1661621472044,-0.9852,-0.5086,-0.3368,18.23,-10.97,-6.35,
35374,1661621472044,-1.0712,-0.6942,0.3751,13.62,-0.99,-7.25,
35375,1661621472044,-1.1303,-0.4354,0.2823,9.22,-9.2,-9.18,
35376,1661621472046,-1.0385,-0.9539,-0.537,4.31,-15.37,-4.34,
35377,1661621472046,-1.099,-0.7723,0.0967,6.43,-6.91,-1.42,
35378,1661621472046,-1.1679,-0.7347,0.2945,1.73,6.36,-1.24,
35379,1661621472046,-0.9725,-0.9217,-0.1757,-3.26,-9.54,-0.97,
35380,1661621472046,-1.0785,-0.9749,-0.351,-11.68,-16.22,0.5,
35381,1661621472046,-1.2225,-0.8846,0.5972,-8.16,-23.32,5.5,
35382,1661621472046,-1.2108,-0.7742,0.2427,-14.37,-20.61,6.33,
35383,1661621472046,-1.2045,-0.5848,0.4185,-16.87,1.11,6.05,
35384,1661621472046,-1.3261,-0.8621,0.7056,-19.86,2.98,7.15,
35385,1661621472046,-1.1244,-0.2381,0.5137,-23.16,-4.81,9.24,
35386,1661621472046,-1.266,0.0148,0.5972,-18.47,-7.58,11.9,
35387,1661621472046,-1.3055,-0.6185,0.4249,-15.28,2.47,10.89,
35388,1661621472046,-1.202,0.0812,0.2715,-21.87,8.99,9.33,
35389,1661621472046,-1.12,0.0881,0.4239,-25.37,12.37,15.91,
35390,1661621472046,-1.0883,0.2717,0.1573,-20.78,-1.76,9.16,
35391,1661621472046,-0.9642,0.4606,0.1138,-12.57,-2.78,7.52,
35392,1661621472046,-1.2055,0.2487,0.2354,-11.38,-12.24,7.88,
35393,1661621472046,-1.306,0.5466,0.3619,-15.86,-10.04,7.7,
35394,1661621472046,-1.0834,0.6047,0.3179,-12.46,8.32,12.35,
35395,1661621472046,-0.9891,0.4167,0.4932,-10.26,21.5,8.43,
35396,1661621472046,-0.9183,0.8859,0.3179,-6.57,11.69,4.69,
35397,1661621472046,-1.1117,0.3068,0.3287,-1.08,6.7,6.97,
35398,1661621472046,-0.9999,0.3928,0.4874,0.72,8.65,5.41,
35399,1661621472046,-1.0385,0.8137,0.169,2.83,2.23,1.76,
35400,1661621472046,-0.997,0.5129,0.1236,6.72,4.93,8.89,
35401,1661621472046,-1.0741,0.5065,0.3531,8.54,8.32,2.13,
35402,1661621472046,-0.9906,0.6838,0.213,8.61,3.74,9.42,
35403,1661621472046,-0.9266,0.6559,0.0352,9.02,0.44,6.69,
35404,1661621472046,-1.0414,0.9694,0.4771,8.72,6.45,1.86,
35405,1661621472046,-0.7831,0.842,0.3951,14.43,2.73,1.76,
35406,1661621472046,-1.0204,0.6818,0.1187,21.2,5.1,5.78,
35407,1661621472046,-0.9061,1.028,0.3458,25.0,11.52,4.88,
35408,1661621472046,-0.9218,0.9816,0.3214,27.72,10.68,3.41,
35409,1661621472061,-0.913,0.9758,0.3887,27.9,16.77,1.05,
35410,1661621472061,-0.7142,1.07,-0.144,31.12,3.91,3.32,
35411,1661621472061,-0.7699,0.8688,-0.1669,33.0,8.22,4.24,
35412,1661621472061,-0.7596,0.9914,-0.1674,41.6,4.42,-4.61,
35413,1661621472061,-0.6537,0.8542,-0.3871,41.8,4.26,-3.79,
35414,1661621472061,-0.7245,0.82,-0.3603,38.9,7.29,-8.9,
35415,1661621472061,-0.7372,0.8078,-0.2978,40.7,-2.09,-5.99,
35416,1661621472061,-0.6849,0.4465,-0.3212,42.0,-2.01,-5.25,
35417,1661621472061,-0.7509,0.4885,-0.3461,44.71,-7.51,-11.27,
35418,1661621472061,-0.8876,0.2214,-0.1108,45.51,-13.76,-9.27,
35419,1661621472061,-0.8832,0.1686,0.3179,45.11,-0.49,-10.9,
35420,1661621472061,-0.9374,0.0427,0.0738,43.71,-1.08,-7.25,
35421,1661621472061,-0.8422,-0.2069,-0.353,41.2,-1.08,-13.28,
35422,1661621472061,-0.9066,-0.1317,0.2183,31.41,-5.91,-9.18,
35423,1661621472061,-0.9042,-0.4339,0.0987,38.52,-7.08,-11.18,
35424,1661621472061,-0.7948,-0.6683,-0.5849,37.91,-14.36,-4.89,
35425,1661621472061,-1.1464,-0.4075,0.108,27.9,-15.03,-7.44,
35426,1661621472061,-0.9584,-0.6209,0.3399,21.72,-17.15,-2.34,
35427,1661621472061,-0.9515,-0.5765,-0.4116,23.32,-28.31,-8.63,
35428,1661621472061,-0.9222,-0.6048,-0.1152,17.71,-23.74,-1.06,
35429,1661621472061,-1.0331,-0.4759,0.5098,14.41,-3.88,-1.24,
35430,1661621472061,-0.8803,-0.6111,-0.079,14.21,-7.42,-1.61,
35431,1661621472061,-0.8837,-0.6849,-0.2978,11.82,-10.54,-3.24,
35432,1661621472061,-1.0678,-0.3958,-0.0654,10.43,-15.63,-10.35,
35433,1661621472061,-1.0238,-0.6429,0.2056,4.81,-2.26,-4.89,
35434,1661621472061,-1.1386,-0.5501,0.2051,1.12,-2.95,-8.08,
35435,1661621472061,-1.0453,-0.4564,-0.6054,2.04,-16.05,-7.44,
35436,1661621472061,-1.0966,-0.7967,0.2159,-2.77,-9.37,-3.33,
35437,1661621472061,-1.1766,-0.3172,0.6094,-9.27,-12.67,-5.35,
35438,1661621472061,-1.0253,-0.681,-0.3276,-8.46,-13.6,-2.87,
35439,1661621472061,-1.1639,-0.6492,0.4893,-12.66,2.47,-3.97,
35440,1661621472061,-1.2343,-0.5076,0.8297,-14.28,11.52,-4.8,
35441,1661621472061,-1.2435,-0.6326,0.334,-17.37,-3.36,0.31,
35442,1661621472061,-1.1762,-0.4212,0.1065,-18.66,-0.66,-1.06,
35443,1661621472077,-1.3363,-0.5565,0.606,-13.56,-3.28,8.07,
35444,1661621472077,-1.3114,-0.2576,0.4561,-15.27,-1.08,4.69,
35445,1661621472077,-1.2723,-0.1717,0.2017,-17.57,-7.0,10.52,
35446,1661621472077,-1.1078,-0.5335,0.1783,-19.17,-9.2,8.07,
35447,1661621472077,-1.2865,0.1183,0.7647,-21.26,-4.46,10.07,
35448,1661621472077,-1.0883,-0.0296,0.3677,-15.19,-9.7,9.61,
35449,1661621472077,-1.2513,0.2453,0.1251,-12.67,-8.7,11.16,
35450,1661621472077,-1.0902,0.4733,0.6148,-12.78,8.82,9.16,
35451,1661621472077,-1.0819,0.1613,0.5777,-9.47,0.44,7.97,
35452,1661621472077,-1.1078,0.673,0.3194,-10.58,7.96,12.72,
35453,1661621472077,-0.9887,0.4787,0.3013,-6.98,2.9,12.08,
35454,1661621472077,-0.9872,0.5207,0.2506,-6.48,5.94,9.52,
35455,1661621472077,-0.8724,1.0685,0.0904,-2.97,7.55,11.9,
35456,1661621472077,-0.931,0.6555,0.1998,2.72,13.05,14.08,
35457,1661621472077,-0.9418,0.9797,0.2623,1.52,16.77,11.53,
35458,1661621472077,-0.9774,1.1525,0.1104,1.64,5.43,5.69,
35459,1661621472085,-1.0287,0.924,0.2794,4.72,18.63,6.42,
35460,1661621472085,-0.9169,1.07,0.3541,11.83,14.82,-0.14,
35461,1661621472085,-0.8519,1.0383,0.0465,17.0,16.01,-0.78,
35462,1661621472085,-0.8866,0.9728,0.3472,21.9,15.58,0.04,
35463,1661621472085,-0.9296,1.1291,0.4029,25.52,9.41,-4.8,
35464,1661621472085,-0.9198,0.8425,-0.0029,29.01,9.25,2.95,
35465,1661621472085,-0.7787,0.7746,-0.061,32.42,8.65,-3.52,
35466,1661621472085,-0.9638,0.9445,0.2076,33.12,16.43,-1.24,
35467,1661621472085,-0.7284,0.4523,-0.2514,34.02,8.99,-5.16,
35468,1661621472088,-0.7279,0.5505,-0.4223,36.51,-7.17,-4.89,
35469,1661621472088,-0.764,0.6281,0.044,38.61,-9.37,-4.52,
35470,1661621472088,-0.7528,0.3849,0.1036,41.6,-6.84,-3.33,
35471,1661621472088,-0.8065,0.4665,-0.5151,40.7,-0.82,-2.07,
35472,1661621472088,-0.7084,0.2761,-0.183,37.31,3.74,-3.88,
35473,1661621472088,-0.7357,0.5378,0.5753,31.61,16.51,-1.15,
35474,1661621472088,-0.6884,0.5114,0.0093,37.82,-10.47,-3.79,
35475,1661621472088,-0.765,-0.0316,-1.1064,42.81,-20.71,-3.42,
35476,1661621472088,-0.7767,0.4933,0.2891,39.31,-0.32,-5.35,
35477,1661621472088,-0.8588,0.2385,0.3214,35.89,1.3,-6.26,
35478,1661621472088,-0.8368,-0.0042,-0.748,33.82,-5.05,-4.71,
35479,1661621472088,-0.8519,-0.0008,-0.1567,29.21,-14.27,-9.63,
35480,1661621472088,-1.0223,-0.076,0.8028,34.31,-6.91,-9.63,
35481,1661621472088,-0.996,-0.1868,-0.3735,33.1,-12.76,-11.72,
35482,1661621472088,-0.9652,-0.5389,-0.2494,29.72,-10.97,-13.19,
35483,1661621472088,-1.0258,-0.2352,0.8707,26.02,1.3,-13.65,
35484,1661621472088,-1.0214,-0.3358,0.3443,22.42,-6.41,-13.65,
35485,1661621472088,-0.9027,-0.7801,-0.7045,19.31,-7.58,-9.82,
35486,1661621472088,-1.0453,-0.6116,0.0865,14.72,-7.42,-15.74,
35487,1661621472088,-1.0053,-0.6317,0.1456,18.71,-18.59,-9.08,
35488,1661621472088,-0.9413,-0.8392,-0.7167,19.22,-24.67,-10.53,
35489,1661621472088,-1.0575,-0.9012,-0.1269,9.63,-14.02,0.04,
35490,1661621472088,-1.1317,-1.0042,0.2969,0.11,-23.83,-3.15,
35491,1661621472088,-1.1029,-0.6341,0.2486,-2.98,-20.54,-2.87,
35492,1661621472088,-0.9496,-0.9984,0.044,0.62,-8.18,1.14,
35493,1661621472088,-1.2167,-0.7767,0.2139,-6.57,-1.5,1.95,
35494,1661621472088,-1.1371,-0.6527,0.5303,-15.47,2.14,1.49,
35495,1661621472088,-1.2157,-0.8411,0.6895,-17.16,1.97,6.97,
35496,1661621472088,-1.1991,-0.3841,0.2545,-16.78,-1.5,7.97,
35497,1661621472088,-1.1473,-0.5208,-0.0424,-17.97,-10.9,7.06,
35498,1661621472088,-1.2162,-0.3167,0.7383,-23.16,2.64,1.14,
35499,1661621472088,-1.2474,-0.0819,0.2213,-21.66,-2.35,0.86,
35500,1661621472088,-1.1942,-0.2527,-0.3603,-18.98,-13.17,2.41,
35501,1661621472104,-1.2279,0.2165,0.3023,-15.37,0.87,-1.7,
35502,1661621472104,-1.308,0.1662,1.0435,-19.36,1.97,3.41,
35503,1661621472104,-1.2191,-0.0194,0.0499,-21.07,-1.08,-0.6,
35504,1661621472104,-1.0009,0.2702,0.2559,-19.16,1.71,3.05,
35505,1661621472104,-1.1849,0.1931,1.0714,-10.86,15.91,1.4,
35506,1661621472104,-1.0541,0.3127,0.0259,-7.76,12.12,4.88,
35507,1661621472104,-1.0472,0.3141,-0.2641,-6.88,7.89,2.77,
35508,1661621472104,-1.0453,0.0471,0.3697,-11.36,4.67,7.79,
35509,1661621472104,-1.2479,0.5207,0.628,-7.87,-6.74,4.69,
35510,1661621472104,-0.9423,0.2848,-0.1596,-4.57,-7.34,7.52,
35511,1661621472104,-1.0106,0.4196,0.0733,-0.16,-3.95,9.16,
35512,1661621472104,-1.1967,0.673,0.5479,2.62,10.35,11.35,
35513,1661621472104,-0.9437,0.5319,0.7335,0.33,9.58,9.88,
35514,1661621472104,-0.9598,0.757,-0.082,1.03,6.12,6.33,
35515,1661621472104,-0.8856,0.7507,0.5049,2.22,11.18,8.25,
35516,1661621472104,-1.1171,0.718,0.8663,7.03,16.1,7.88,
35517,1661621472104,-0.8451,1.1188,0.4273,13.02,16.43,7.88,
35518,1661621472104,-0.6513,0.9592,-0.436,21.11,6.12,11.62,
35519,1661621472104,-0.9237,1.0534,0.335,19.2,18.8,8.25,
35520,1661621472104,-0.993,1.3371,0.4634,20.62,8.99,5.59,
35521,1661621472104,-0.8436,1.007,-0.1948,23.61,1.88,4.69,
35522,1661621472104,-0.7894,1.2263,-0.0698,26.53,7.03,-0.88,
35523,1661621472104,-0.785,1.1384,0.0137,33.22,1.8,0.96,
35524,1661621472104,-0.7909,0.9206,0.0767,33.22,4.76,-7.07,
35525,1661621472104,-0.7094,1.1755,0.0142,38.61,0.02,-7.25,
35526,1661621472104,-0.7074,0.7634,-0.2529,45.61,3.83,-4.34,
35527,1661621472104,-0.7352,0.6071,0.1378,48.61,9.49,-4.52,
35528,1661621472104,-0.7152,0.7155,-0.0839,47.9,12.28,-8.17,
35529,1661621472104,-0.7484,0.4206,-0.4736,46.12,-0.82,-5.8,
35530,1661621472104,-0.7513,0.1286,-0.5893,42.01,-5.48,-8.17,
35531,1661621472104,-0.9164,0.3273,0.1402,42.9,-10.3,-6.08,
35532,1661621472104,-0.7655,-0.3426,-0.4599,45.6,-20.19,-6.98,
35533,1661621472104,-0.8099,-0.0423,-0.5092,44.38,-13.76,-7.35,
35534,1661621472104,-0.7372,-0.2386,0.4673,34.7,-2.01,-8.44,
35535,1661621472104,-0.8651,-0.3797,-0.0966,33.62,-14.36,-8.99,
35536,1661621472120,-0.7787,-0.4183,-0.2607,31.42,-12.41,-8.54,
35537,1661621472120,-1.119,-0.3445,0.5323,32.81,-4.55,-8.72,
35538,1661621472120,-0.9056,-0.1268,0.0596,28.34,-5.74,-11.63,
35539,1661621472120,-1.1332,-0.6824,-0.2621,30.02,-22.74,-8.44,
35540,1661621472120,-1.0233,-0.4373,0.1783,24.71,-6.49,-7.25,
35541,1661621472120,-0.9452,-0.0418,0.1861,20.62,-14.86,-1.61,
35542,1661621472120,-1.0287,-0.598,-0.2641,17.02,-4.04,-1.7,
35543,1661621472120,-0.91,-0.2332,-0.1962,14.53,-18.92,-8.44,
35544,1661621472120,-1.0228,-0.5701,-0.2182,12.53,-13.34,-6.17,
35545,1661621472120,-1.0214,-0.39,0.1798,11.53,-10.8,-8.17,
35546,1661621472120,-1.0302,-0.5994,-0.0034,6.81,-13.5,-8.44,
35547,1661621472120,-1.0077,-0.6658,0.0801,2.33,-10.64,-8.72,
35548,1661621472120,-1.1049,-0.5726,-0.0405,1.12,-9.37,-10.18,
35549,1661621472120,-1.0809,-1.0154,0.2911,-1.17,7.89,-5.62,
35550,1661621472120,-1.0302,-0.8211,0.3931,-7.49,0.87,-8.44,
35551,1661621472120,-1.1146,-0.6175,-0.0009,-10.28,-11.57,-11.54,
35552,1661621472120,-1.0609,-1.0399,0.1002,-12.26,-14.02,-2.51,
35553,1661621472120,-1.3729,-0.5267,0.6173,-14.57,-0.06,-0.78,
35554,1661621472120,-1.1718,-0.9305,-0.0908,-17.86,-3.53,5.69,
35555,1661621472120,-1.3871,-0.6087,0.5064,-18.37,-6.84,3.96,
35556,1661621472120,-1.2484,-0.3651,0.9698,-14.96,-12.76,8.62,
35557,1661621472120,-1.2006,-0.4432,-0.1801,-17.27,-14.1,4.51,
35558,1661621472120,-1.12,-0.0858,0.6461,-21.46,15.41,5.41,
35559,1661621472120,-1.2865,-0.2357,0.9698,-24.26,10.59,5.59,
35560,1661621472120,-1.0927,0.3947,0.1368,-19.46,-1.76,2.59,
35561,1661621472120,-1.0297,0.4406,0.0347,-11.36,-6.41,7.24,
35562,1661621472120,-1.1303,0.1105,0.3145,-12.96,-0.49,7.15,
35563,1661621472120,-1.1054,0.5754,0.5377,-13.18,3.07,5.32,
35564,1661621472120,-1.0223,0.3796,0.0025,-14.47,-1.16,10.16,
35565,1661621472120,-1.059,0.8112,0.1666,-10.46,2.9,7.06,
35566,1661621472120,-1.1464,0.8996,0.4996,-6.57,8.22,8.8,
35567,1661621472120,-1.1195,0.5246,0.6407,-2.27,7.96,5.87,
35568,1661621472120,-0.9384,0.8869,-0.1445,-0.59,0.7,3.14,
35569,1661621472120,-1.0038,0.7731,0.3926,0.02,13.64,1.58,
35570,1661621472135,-1.0585,0.6691,0.8345,3.23,23.96,0.59,
35571,1661621472135,-1.0219,0.9557,0.2882,6.54,14.24,-0.05,
35572,1661621472135,-0.8695,0.6008,-0.5117,14.93,7.72,5.32,
35573,1661621472135,-0.9789,0.9377,0.5797,13.72,20.83,3.32,
35574,1661621472135,-1.0507,0.9001,0.3858,18.52,18.2,0.86,
35575,1661621472135,-0.8378,0.5505,-0.3808,21.43,2.47,3.87,
35576,1661621472135,-0.8744,0.7463,-0.3744,20.42,-1.85,5.59,
35577,1661621472135,-0.9784,0.9694,1.0338,23.43,5.1,4.97,
35578,1661621472135,-0.9833,0.7541,0.066,28.42,-4.46,4.24,
35579,1661621472135,-0.871,0.7223,-0.541,32.13,-1.42,1.86,
35580,1661621472135,-0.7162,0.6848,0.1695,32.32,12.12,4.79,
35581,1661621472135,-1.0404,1.0505,0.9151,31.21,19.47,-1.7,
35582,1661621472135,-0.639,0.7985,-0.5825,37.12,1.21,0.41,
35583,1661621472135,-0.8231,0.4606,-0.5937,39.11,-0.66,-3.61,
35584,1661621472135,-0.7577,0.8771,0.126,41.51,4.42,-7.53,
35585,1661621472135,-0.7826,0.7336,-0.1249,41.8,-7.25,-6.61,
35586,1661621472135,-0.6908,0.4011,-0.7372,40.92,-1.33,-10.44,
35587,1661621472135,-0.6849,0.6257,-0.5825,40.41,-8.44,-9.45,
35588,1661621472135,-0.8319,0.2292,-0.2641,42.0,-10.04,-9.91,
35589,1661621472135,-0.8676,0.5226,0.2291,42.52,-9.45,-11.91,
35590,1661621472135,-0.7992,-0.1028,-0.2675,42.41,-12.83,-9.45,
35591,1661621472135,-0.8754,-0.0135,-0.0893,39.82,-4.97,-11.72,
35592,1661621472135,-0.9418,-0.0828,0.4986,36.22,-0.4,-10.81,
35593,1661621472135,-0.9227,-0.5477,-0.0839,38.5,-5.14,-10.44,
35594,1661621472135,-0.8041,-0.3802,-0.3334,34.22,-8.35,-13.83,
35595,1661621472148,-1.0551,-0.4764,-0.0624,27.7,-12.33,-12.73,
35596,1661621472148,-1.0507,-0.6907,0.3858,27.12,-6.74,-9.45,
35597,1661621472148,-0.8182,-0.4554,-0.2695,27.12,-13.93,-7.89,
35598,1661621472148,-0.912,-0.9442,-0.5278,16.61,-19.26,-8.81,
35599,1661621472148,-1.0243,-0.6365,0.4215,12.23,-24.34,-6.7,
35600,1661621472148,-0.9423,-0.8055,0.2115,14.41,-22.74,-3.52,
35601,1661621472148,-1.0512,-0.6717,-0.4809,10.73,-20.54,-6.8,
35602,1661621472148,-0.996,-0.7454,-0.0034,7.8,-11.9,-5.53,
35603,1661621472148,-1.2665,-0.8069,0.7759,5.22,-4.72,-0.05,
35604,1661621472148,-1.0507,-0.3006,-0.0346,2.72,-13.76,-4.34,
35605,1661621472148,-1.1229,-0.7806,-0.4394,3.23,-16.39,1.58,
35606,1661621472148,-1.1478,-0.5247,0.6241,-7.96,5.26,2.59,
35607,1661621472148,-1.0927,-0.3787,0.6343,-12.26,-4.72,5.41,
35608,1661621472148,-1.1371,-0.6058,-0.2065,-12.08,-9.2,5.69,
35609,1661621472148,-1.1718,-0.3289,0.1309,-10.06,-7.17,3.5,
35610,1661621472156,-1.2675,-0.5076,0.585,-16.47,-4.29,5.32,
35611,1661621472156,-1.2489,-0.179,0.3804,-21.68,4.07,-0.42,
35612,1661621472156,-1.2059,-0.3577,0.1387,-14.76,4.42,2.5,
35613,1661621472156,-1.2577,-0.5648,0.3214,-13.67,9.75,9.52,
35614,1661621472156,-1.2435,-0.0364,0.752,-15.27,7.96,4.6,
35615,1661621472156,-1.1469,-0.0189,0.3873,-14.38,0.18,8.43,
35616,1661621472156,-1.018,-0.4442,0.0132,-17.66,-4.29,6.69,
35617,1661621472156,-1.2387,0.2038,0.6431,-21.68,-0.23,9.7,
35618,1661621472156,-1.1332,-0.1204,0.2232,-15.36,-11.9,10.16,
35619,1661621472156,-1.2831,0.1955,0.2369,-9.87,-2.52,12.99,
35620,1661621472156,-1.1239,0.2521,0.6456,-8.97,7.39,10.16,
35621,1661621472156,-0.9286,0.1076,0.5342,-12.28,-6.74,10.07,
35622,1661621472156,-1.0853,0.6725,0.2769,-7.67,-2.85,9.07,
35623,1661621472156,-0.9857,0.2658,0.4932,-1.57,3.23,13.16,
35624,1661621472156,-1.058,0.7116,0.5264,-0.67,19.39,10.34,
35625,1661621472156,-0.9725,1.0075,0.317,-1.58,20.16,8.52,
35626,1661621472156,-1.0287,0.6862,0.105,-0.97,14.31,11.99,
35627,1661621472156,-0.8656,0.904,0.2882,2.33,11.35,7.24,
35628,1661621472156,-0.8666,0.9509,0.1758,7.32,3.4,6.42,
35629,1661621472156,-0.9999,0.8879,0.0655,11.22,6.62,7.06,
35630,1661621472156,-0.8319,1.2311,-0.0336,16.62,1.88,3.23,
35631,1661621472156,-0.7875,1.0075,0.1607,16.62,13.64,5.06,
35632,1661621472156,-0.9164,1.279,0.4424,17.9,19.39,2.95,
35633,1661621472156,-0.8949,1.1808,-0.0312,22.01,10.18,2.5,
35634,1661621472156,-0.8729,1.0007,0.0728,28.92,19.81,0.86,
35635,1661621472156,-0.8305,1.1559,0.4097,35.71,20.16,-4.52,
35636,1661621472156,-0.8471,0.8005,-0.1225,36.41,8.73,-3.79,
35637,1661621472156,-0.6884,0.7433,-0.1215,38.7,4.5,-6.43,
35638,1661621472156,-0.7924,0.7931,-0.0937,41.02,1.54,-6.17,
35639,1661621472156,-0.7616,0.5378,-0.2773,44.61,1.37,-4.61,
35640,1661621472156,-0.6508,0.3561,-0.3124,42.52,8.99,-2.25,
35641,1661621472156,-0.8124,0.3879,-0.1074,41.51,-4.81,-2.34,
35642,1661621472156,-0.7792,0.0715,-0.5619,38.81,-27.3,-4.06,
35643,1661621472156,-0.8309,0.3947,0.2105,40.09,-15.53,-7.07,
35644,1661621472156,-0.7606,-0.054,0.252,44.2,-1.33,-2.87,
35645,1661621472156,-0.8759,-0.0208,-0.6606,40.41,-1.76,-6.52,
35646,1661621472156,-0.7045,0.217,-0.3847,36.7,4.26,-5.99,
35647,1661621472156,-0.7723,-0.0013,0.5396,33.61,0.61,-6.98,
35648,1661621472156,-0.8344,0.1042,-0.2255,38.12,-13.17,-8.63,
35649,1661621472171,-0.8324,-0.3397,-0.8578,36.32,-15.2,-1.7,
35650,1661621472171,-1.0551,-0.0438,0.3878,29.62,-3.69,-6.35,
35651,1661621472171,-1.0228,0.0549,-0.1254,27.21,-21.71,-5.8,
35652,1661621472171,-0.9476,-0.5369,-0.5151,30.2,-21.21,-11.63,
35653,1661621472171,-0.9618,-0.159,0.4566,17.43,-15.72,-8.08,
35654,1661621472171,-0.9252,-0.4002,0.3072,17.63,-9.96,-5.44,
35655,1661621472171,-0.8422,-0.3533,-0.1523,18.62,-7.0,-8.44,
35656,1661621472171,-0.9569,-0.3694,-0.1132,22.21,-2.26,-8.35,
35657,1661621472171,-1.1054,-0.8152,0.4551,17.52,2.14,-10.09,
35658,1661621472171,-0.9911,-0.5643,0.0938,12.43,-6.65,-11.82,
35659,1661621472171,-0.9579,-0.7654,-0.6259,7.83,-17.06,-10.9,
35660,1661621472171,-1.0971,-0.9085,-0.0243,4.61,-6.65,-4.89,
35661,1661621472171,-1.204,-0.7547,0.0894,0.13,-5.31,-4.34,
35662,1661621472171,-0.8832,-1.074,-0.517,-4.66,-20.36,0.41,
35663,1661621472171,-1.1644,-0.7518,0.3721,-9.56,-20.95,-2.16,
35664,1661621472171,-1.0907,-0.9173,0.6016,-9.38,-22.74,-0.42,
35665,1661621472171,-1.2201,-0.9022,0.1046,-9.88,-8.87,3.32,
35666,1661621472171,-1.142,-0.7576,0.2159,-13.47,4.5,1.76,
35667,1661621472171,-1.2484,-0.6224,0.8077,-21.57,6.03,2.13,
35668,1661621472171,-1.162,-0.2952,0.814,-23.37,8.9,1.32,
35669,1661621472171,-1.1591,-0.3919,-0.0058,-13.36,-14.1,5.69,
35670,1661621472171,-1.2919,-0.2264,0.3223,-15.37,3.23,6.88,
35671,1661621472171,-1.2875,0.2399,0.609,-20.76,4.5,3.78,
35672,1661621472171,-1.1327,0.1052,0.355,-23.66,3.57,5.69,
35673,1661621472171,-1.1591,0.154,-0.0576,-21.05,-7.0,4.69,
35674,1661621472171,-1.079,0.4084,0.4527,-17.48,-5.39,4.24,
35675,1661621472171,-1.0638,0.4089,0.5992,-13.57,-2.95,2.68,
35676,1661621472171,-1.1395,0.488,0.2628,-10.66,-5.74,3.5,
35677,1661621472171,-1.0551,0.3571,0.4249,-6.59,4.17,0.13,
35678,1661621472171,-1.0551,0.3918,0.6539,-7.68,12.71,-1.42,
35679,1661621472171,-1.0829,0.8283,0.3585,-4.59,17.2,-2.07,
35680,1661621472171,-1.1,0.2253,0.0655,-1.89,14.82,3.6,
35681,1661621472187,-1.1459,0.6193,0.2535,-1.87,9.08,1.67,
35682,1661621472187,-1.058,0.7253,0.2916,-2.77,5.52,3.32,
35683,1661621472187,-0.9696,0.4694,0.1675,4.63,-3.62,5.15,
35684,1661621472187,-1.08,0.7057,0.1607,6.81,-2.18,6.05,
35685,1661621472187,-0.8368,0.5524,0.2432,10.0,1.71,4.6,
35686,1661621472187,-0.8807,0.5939,0.233,12.21,-0.15,6.6,
35687,1661621472187,-1.0429,0.9855,0.3917,14.91,14.24,5.59,
35688,1661621472187,-0.7865,0.7028,0.3292,17.32,21.0,3.87,
35689,1661621472187,-0.8925,1.1276,0.0948,19.61,25.99,0.86,
35690,1661621472187,-0.9218,1.1931,-0.0136,25.92,13.31,4.05,
35691,1661621472187,-1.0145,0.7507,0.2803,27.01,11.95,4.97,
35692,1661621472187,-0.7797,1.2702,0.439,30.92,8.06,-0.23,
35693,1661621472187,-0.6498,0.9494,-0.7216,35.01,-6.41,-1.42,
35694,1661621472187,-0.661,0.8371,-0.2348,36.81,10.85,-1.88,
35695,1661621472187,-0.7943,1.0119,0.3809,36.61,6.19,-3.42,
35696,1661621472187,-0.7621,0.8181,0.0489,33.61,-1.16,-7.35,
35697,1661621472187,-0.7802,0.8405,-0.5234,37.62,-11.06,-8.9,
35698,1661621472187,-0.8324,0.7331,0.1158,41.11,1.37,-10.53,
35699,1661621472187,-0.8573,0.6047,0.3052,40.32,3.14,-13.1,
35700,1661621472187,-0.7963,0.4973,-0.6327,45.4,-1.33,-14.27,
35701,1661621472187,-0.8026,-0.0823,-0.1977,44.7,4.07,-13.28,
35702,1661621472187,-0.8685,0.2429,0.2857,46.3,14.4,-12.46,
35703,1661621472187,-0.7767,0.2639,-0.1484,42.91,-2.43,-14.73,
35704,1661621472187,-0.7084,-0.3963,-0.8066,40.4,-21.29,-13.1,
35705,1661621472187,-0.8466,-0.4959,-0.1181,38.32,-6.65,-8.99,
35706,1661621472187,-0.8129,-0.4012,0.1124,36.0,-4.55,-7.35,
35707,1661621472187,-0.9642,-0.5306,-0.5961,32.61,-21.97,-6.8,
35708,1661621472187,-1.018,-0.5198,0.2383,28.71,-23.41,-4.8,
35709,1661621472187,-1.118,-0.6561,0.5811,25.23,-21.47,-2.25,
35710,1661621472187,-0.9115,-0.3641,-0.0312,20.42,-11.66,-5.25,
35711,1661621472187,-0.9486,-0.7054,0.1695,14.62,-5.91,0.13,
35712,1661621472187,-0.9159,-0.2972,0.669,13.63,2.81,-4.71,
35713,1661621472187,-0.9198,-0.2767,0.334,18.53,-8.44,-0.23,
35714,1661621472187,-1.0013,-0.7386,-0.4653,17.51,-6.32,-3.61,
35715,1661621472187,-1.0004,-0.39,-0.0903,5.73,-17.23,-2.78,
35716,1661621472203,-1.0668,-0.4544,0.0894,0.43,-12.57,-4.89,
35717,1661621472203,-1.0404,-0.553,-0.2411,-0.07,-14.62,-3.33,
35718,1661621472203,-0.995,-0.6478,-0.2929,1.64,-17.4,-8.81,
35719,1661621472203,-1.1835,-0.4954,0.566,-7.26,-15.46,-7.07,
35720,1661621472203,-1.1151,-0.4861,0.1514,-2.77,-13.17,-0.6,
35721,1661621472203,-1.181,-0.9163,0.0923,-5.67,1.71,1.05,
35722,1661621472203,-1.2445,-0.825,0.6173,-13.07,21.33,1.4,
35723,1661621472203,-1.286,-0.4319,0.6622,-16.26,7.8,1.67,
35724,1661621472203,-1.1102,-0.6463,-0.0234,-16.06,-5.65,1.05,
35725,1661621472203,-1.3329,-0.4593,0.5098,-14.87,-1.76,1.05,
35726,1661621472203,-1.3226,-0.5237,0.2901,-8.97,-1.08,6.24,
35727,1661621472203,-1.2074,-0.429,-0.0234,-14.06,-8.94,6.51,
35728,1661621472203,-1.2289,-0.1531,0.5499,-20.38,-1.42,6.78,
35729,1661621472203,-1.3158,-0.2659,0.3287,-21.55,-15.12,4.14,
35730,1661621472203,-1.2943,-0.2034,0.2032,-20.17,-8.61,7.7,
35731,1661621472203,-0.9818,0.0578,0.6309,-17.47,-6.15,7.61,
35732,1661621472203,-1.245,0.3088,0.6207,-12.77,4.0,8.16,
35733,1661621472203,-1.035,0.2678,0.3741,-6.86,8.06,8.34,
35734,1661621472203,-1.1259,0.2516,0.5245,-8.86,12.95,17.82,
35735,1661621472203,-1.1722,0.6183,0.7569,-11.88,19.64,12.35,
35736,1661621472203,-1.1928,0.8215,0.1324,-4.46,-4.21,9.7,
35737,1661621472203,-1.0487,0.4987,-0.0663,-3.56,4.0,7.97,
35738,1661621472203,-0.9359,0.9177,0.5006,-3.87,4.5,5.87,
35739,1661621472203,-0.9325,0.9767,0.1177,0.04,4.0,12.99,
35740,1661621472203,-1.0331,0.9914,-0.0702,6.93,6.79,8.43,
35741,1661621472203,-0.9779,0.9225,0.2349,8.54,18.54,6.42,
35742,1661621472203,-0.9877,1.0046,0.5035,8.73,21.76,5.32,
35743,1661621472203,-0.9774,1.0847,0.1422,12.73,19.13,-1.97,
35744,1661621472203,-0.9291,0.8527,0.0279,21.02,22.26,-0.05,
35745,1661621472203,-0.8314,0.841,0.1353,24.73,19.39,-3.7,
35746,1661621472203,-0.9159,1.1984,0.025,27.62,6.96,-5.25,
35747,1661621472203,-0.9061,0.6916,-0.0829,29.43,10.68,2.31,
35748,1661621472203,-0.8363,0.6857,-0.059,31.7,10.59,-0.05,
35749,1661621472203,-0.8529,0.7609,-0.1699,32.61,5.36,1.4,
35750,1661621472218,-0.7289,0.6647,-0.1049,35.71,-3.28,1.14,
35751,1661621472218,-0.8217,0.5319,0.1636,37.71,-4.55,-0.6,
35752,1661621472218,-0.6283,0.3786,0.1666,37.1,-4.38,0.31,
35753,1661621472218,-0.9437,0.6974,-0.0981,36.92,-1.16,-3.24,
35754,1661621472218,-0.8602,0.5637,-0.0756,36.7,3.66,-5.16,
35755,1661621472218,-0.788,0.2062,0.0045,39.02,1.46,0.13,
35756,1661621472218,-0.8524,0.5534,0.4127,37.62,14.31,-4.25,
35757,1661621472218,-0.7636,0.6525,-0.5268,42.79,-4.29,-2.51,
35758,1661621472218,-0.7177,0.0817,-0.8027,46.0,-10.73,-4.06,
35759,1661621472218,-0.7787,0.4675,0.2632,40.0,-1.66,-4.06,
35760,1661621472218,-0.7528,0.1667,-0.4789,36.81,-6.32,-3.97,
35761,1661621472218,-0.7216,0.0632,-0.8598,40.2,-9.96,-7.07,
35762,1661621472218,-0.7548,-0.0867,-0.3891,34.11,-11.66,-9.82,
35763,1661621472218,-0.9305,-0.1424,0.4395,31.7,-11.14,-11.45,
35764,1661621472218,-0.9013,-0.1204,-0.1796,33.32,-18.92,-11.72,
35765,1661621472218,-1.0165,-0.6409,-0.1689,33.71,-9.37,-13.1,
35766,1661621472218,-1.0355,-0.366,0.7408,23.31,6.19,-12.0,
35767,1661621472218,-1.0057,-0.3494,0.0318,22.31,-3.88,-16.2,
35768,1661621472218,-0.9647,-0.8914,-0.395,19.52,-8.77,-10.0,
35769,1661621472218,-1.0844,-0.7039,0.3819,17.71,-5.05,-9.91,
35770,1661621472218,-0.8886,-0.6888,-0.0615,18.61,-15.53,-6.08,
35771,1661621472218,-0.9017,-0.8734,-0.6928,13.83,-18.51,-3.88,
35772,1661621472218,-1.0902,-1.1107,0.0723,8.92,-18.84,0.86,
35773,1661621472218,-1.122,-1.1302,0.2691,-1.26,-33.22,0.13,
35774,1661621472218,-1.2264,-0.4759,0.2081,-3.37,-25.86,-2.25,
35775,1661621472218,-0.9935,-0.8651,0.1622,-0.09,-10.97,2.59,
35776,1661621472218,-1.2367,-0.9168,0.0704,-6.07,-8.1,4.05,
35777,1661621472218,-1.077,-0.4193,0.5792,-15.05,1.54,3.32,
35778,1661621472218,-1.2855,-0.8494,0.796,-12.06,7.39,4.14,
35779,1661621472218,-1.181,-0.3226,-0.1035,-9.76,-0.99,3.23,
35780,1661621472218,-1.1102,-0.3851,-0.226,-17.18,-7.25,3.96,
35781,1661621472218,-1.2391,-0.4193,0.7369,-23.46,9.41,3.69,
35782,1661621472218,-1.2777,0.071,0.4053,-19.86,-5.98,4.14,
35783,1661621472234,-1.2391,-0.3607,-0.4994,-16.06,-9.37,6.6,
35784,1661621472234,-1.2675,0.1828,0.5074,-17.18,-1.5,1.4,
35785,1661621472234,-1.2909,0.133,0.7315,-18.38,-1.08,4.97,
35786,1661621472234,-1.059,-0.1995,0.1085,-15.28,2.73,6.42,
35787,1661621472234,-1.1517,0.152,0.066,-16.06,4.59,6.05,
35788,1661621472234,-1.1864,0.3718,0.6422,-10.37,14.24,7.15,
35789,1661621472234,-1.0848,0.0187,0.6036,-9.96,10.76,0.59,
35790,1661621472234,-1.0824,0.2902,0.2701,-5.18,7.13,3.78,
35791,1661621472234,-1.0438,0.1013,0.3419,-7.36,3.74,4.24,
35792,1661621472234,-1.1952,0.2258,0.3599,-9.48,-5.14,-0.88,
35793,1661621472234,-1.1552,0.528,0.4918,-6.66,-2.26,3.05,
35794,1661621472234,-1.0516,0.237,0.1983,-0.67,-5.22,7.43,
35795,1661621472234,-0.9354,0.6642,0.2589,2.11,6.19,10.52,
35796,1661621472234,-0.9716,0.7311,0.3917,2.74,14.14,8.71,
35797,1661621472234,-1.16,0.6066,0.4683,4.32,16.17,10.25,
35798,1661621472234,-0.9056,0.9343,0.0792,7.22,12.71,12.99,
35799,1661621472234,-1.0238,0.8405,0.4307,8.54,13.64,7.88,
35800,1661621472234,-0.912,0.9899,0.6202,12.12,17.7,5.69,
35801,1661621472234,-0.7792,1.1359,-0.0976,17.13,4.84,5.41,
35802,1661621472234,-0.9188,0.9177,-0.1474,20.61,17.7,3.05,
35803,1661621472234,-0.9452,1.3351,0.2559,23.83,17.27,0.96,
35804,1661621472234,-0.871,1.1589,-0.1259,26.33,14.65,-0.88,
35805,1661621472234,-0.8241,1.0973,-0.163,27.43,8.15,-1.42,
35806,1661621472234,-0.7372,1.0744,-0.163,30.31,4.59,-7.07,
35807,1661621472234,-0.8549,0.903,0.1329,37.1,1.11,-7.25,
35808,1661621472234,-0.87,0.9538,0.0875,42.52,0.37,-8.9,
35809,1661621472234,-0.8002,0.5446,-0.1542,44.52,2.14,-5.9,
35810,1661621472234,-0.7684,0.4753,-0.0229,43.1,8.82,-6.43,
35811,1661621472234,-0.8314,0.7184,0.1588,40.2,8.9,-9.73,
35812,1661621472234,-0.7626,0.3068,-0.392,45.4,0.02,-8.63,
35813,1661621472234,-0.8012,0.1794,-0.2368,42.59,-2.95,-11.72,
35814,1661621472234,-0.8456,0.0715,-0.0839,41.69,-10.64,-12.82,
35815,1661621472234,-0.7621,-0.0989,-0.5966,42.2,-15.2,-7.53,
35816,1661621472234,-0.8314,-0.0823,-0.121,39.6,-3.36,-10.53,
35817,1661621472234,-0.7723,-0.3265,-0.017,36.41,-9.54,-10.44,
35818,1661621472250,-0.8798,-0.2908,-0.4418,32.31,-24.34,-5.9,
35819,1661621472250,-0.8407,-0.3494,0.0313,34.81,-17.65,-3.42,
35820,1661621472250,-1.035,-0.2679,0.3526,33.91,-10.47,0.68,
35821,1661621472252,-0.8949,-0.1219,-0.1039,28.4,-15.96,-1.15,
35822,1661621472252,-1.0062,-0.4705,-0.0483,23.32,-7.51,-2.69,
35823,1661621472252,-1.0404,-0.1678,0.4864,24.22,-6.07,-8.54,
35824,1661621472252,-0.8778,-0.3528,-0.0937,20.42,-10.8,-10.35,
35825,1661621472252,-0.9965,-0.3719,0.067,15.43,-6.07,-10.72,
35826,1661621472252,-0.9164,-0.346,0.0338,16.73,-13.43,-9.08,
35827,1661621472252,-1.037,-0.6102,-0.1284,18.82,-8.27,-8.9,
35828,1661621472252,-1.0663,-0.3748,0.0801,11.02,-4.21,-17.84,
35829,1661621472252,-1.0673,-0.8416,-0.1181,5.01,-14.1,-13.74,
35830,1661621472252,-1.0609,-0.6282,0.1304,3.64,-6.24,-8.44,
35831,1661621472252,-1.1122,-0.5169,0.086,4.03,-1.92,-8.63,
35832,1661621472252,-1.0238,-0.9158,-0.1498,-1.17,-4.04,-5.99,
35833,1661621472252,-1.0858,-0.5613,0.3721,-7.06,-1.5,-5.8,
35834,1661621472252,-1.1874,-0.9715,0.2095,-6.08,-14.86,-0.51,
35835,1661621472252,-1.0814,-0.9974,-0.1225,-10.16,-15.46,0.41,
35836,1661621472252,-1.2499,-0.4837,0.8726,-17.28,13.81,2.95,
35837,1661621472252,-1.1659,-0.8958,0.1168,-14.98,-1.76,8.25,
35838,1661621472252,-1.2518,-0.4559,-0.0219,-19.17,-16.39,6.51,
35839,1661621472252,-1.161,-0.3792,1.0421,-12.77,-6.65,11.16,
35840,1661621472252,-1.3173,-0.2645,-0.0341,-14.96,3.74,7.52,
35841,1661621472252,-1.1962,-0.1141,-0.3349,-22.87,2.04,5.87,
35842,1661621472252,-1.2055,-0.2874,0.7842,-27.46,3.33,6.33,
35843,1661621472252,-1.1259,0.5402,0.8653,-22.36,-1.42,6.24,
35844,1661621472252,-0.9672,0.195,-0.5546,-11.06,-22.64,8.98,
35845,1661621472252,-1.1732,0.1691,0.6456,-12.77,3.33,9.33,
35846,1661621472252,-1.1674,0.714,0.9498,-12.06,4.0,11.8,
35847,1661621472252,-1.0687,0.5373,0.19,-12.46,-0.73,12.63,
35848,1661621472252,-1.1454,0.6115,0.084,-7.58,10.85,8.62,
35849,1661621472252,-1.184,0.7702,0.9044,-5.76,3.66,9.79,
35850,1661621472252,-1.1151,0.5988,0.1295,-2.59,0.37,5.69,
35851,1661621472265,-0.9032,0.8303,-0.0439,0.53,4.93,3.69,
35852,1661621472265,-0.954,0.7072,0.2818,3.93,15.33,3.41,
35853,1661621472265,-1.0228,0.7502,0.4708,5.62,15.58,3.69,
35854,1661621472265,-0.9721,1.008,-0.1601,7.03,11.52,1.67,
35855,1661621472265,-0.8187,0.5436,0.0552,13.82,12.37,0.31,
35856,1661621472265,-0.8485,0.695,0.3536,15.52,16.94,1.67,
35857,1661621472265,-1.0463,0.9362,0.211,19.52,9.83,4.24,
35858,1661621472265,-0.681,0.5895,-0.3388,20.8,4.33,7.33,
35859,1661621472265,-0.9569,0.9103,0.4156,23.41,5.77,3.5,
35860,1661621472265,-0.9906,0.9069,0.7095,26.82,7.63,2.22,
35861,1661621472265,-0.9408,0.7468,0.0611,28.91,-1.5,5.32,
35862,1661621472265,-0.8275,0.8337,-0.2695,34.2,3.23,-2.25,
35863,1661621472265,-0.7123,0.6691,0.482,32.0,11.02,1.86,
35864,1661621472265,-1.0497,0.8449,0.6304,34.02,14.48,-2.07,
35865,1661621472265,-0.6649,1.0182,-0.2187,38.02,1.97,1.4,
35866,1661621472265,-0.7001,0.4665,-0.7446,40.41,-3.88,1.58,
35867,1661621472265,-0.7919,1.0124,0.2427,39.91,3.14,-3.97,
35868,1661621472265,-0.8602,0.6096,0.0323,40.01,-6.15,-5.9,
35869,1661621472265,-0.808,0.4699,-0.2368,35.03,-3.19,-5.44,
35870,1661621472265,-0.6268,0.7131,-0.5966,39.3,-14.27,-8.08,
35871,1661621472265,-0.7748,0.3425,-0.329,43.49,0.37,-6.61,
35872,1661621472265,-0.8187,0.5104,0.5382,43.59,8.65,-8.9,
35873,1661621472265,-0.83,-0.0843,-0.4506,43.81,-2.43,-9.54,
35874,1661621472265,-0.849,-0.179,-0.4467,35.91,-4.97,-15.28,
35875,1661621472265,-0.9813,0.0851,0.3048,35.42,-8.18,-11.45,
35876,1661621472265,-0.9032,-0.6268,-0.3349,38.31,-7.34,-13.65,
35877,1661621472265,-0.9071,-0.43,-0.4545,32.32,-7.84,-13.37,
35878,1661621472265,-1.0565,-0.3753,-0.1103,27.62,-11.4,-13.1,
35879,1661621472265,-1.0541,-0.7171,0.2432,27.5,-18.42,-7.99,
35880,1661621472265,-0.9706,-0.5799,-0.0068,26.1,-17.75,-9.08,
35881,1661621472265,-0.9491,-0.8275,-0.0077,15.31,-10.04,-2.16,
35882,1661621472265,-1.0375,-0.7215,0.1011,12.53,-11.14,-5.62,
35883,1661621472265,-0.91,-0.702,0.2882,14.41,-7.08,-6.35,
35884,1661621472265,-1.0638,-0.661,0.0943,12.73,-7.17,-8.08,
35885,1661621472281,-0.9804,-0.598,-0.6279,8.52,-20.87,-8.63,
35886,1661621472281,-1.1576,-0.848,0.4932,3.42,-0.15,-7.99,
35887,1661621472281,-1.0619,-0.1863,0.4844,-4.27,-1.42,-9.27,
35888,1661621472281,-0.9681,-0.6048,-0.9692,-3.96,-21.81,-7.89,
35889,1661621472281,-1.078,-0.889,0.4156,-4.1,-14.69,-4.34,
35890,1661621472281,-1.2118,-0.4481,0.9395,-4.88,-10.13,-6.89,
35891,1661621472281,-1.0126,-0.451,0.0923,-11.16,-9.03,-2.34,
35892,1661621472281,-1.1356,-0.4466,-0.1445,-10.98,-0.23,-3.79,
35893,1661621472281,-1.2938,-0.4744,0.8399,-15.68,11.86,3.69,
35894,1661621472281,-1.1986,-0.5291,0.4923,-17.95,-2.69,4.69,
35895,1661621472281,-1.2157,-0.1219,-0.1752,-13.67,3.14,4.97,
35896,1661621472281,-1.3041,-0.596,0.3419,-11.67,11.52,5.24,
35897,1661621472281,-1.2328,-0.1204,0.5279,-19.17,9.58,5.5,
35898,1661621472281,-1.2152,0.1584,0.3458,-18.98,5.26,6.24,
35899,1661621472281,-1.2015,-0.389,-0.2343,-16.17,-14.79,6.24,
35900,1661621472281,-1.434,-0.0213,0.3521,-13.06,-6.74,9.33,
35901,1661621472281,-1.1029,0.0041,0.8209,-19.16,-5.98,12.72,
35902,1661621472281,-1.0648,0.0671,0.3423,-16.27,-3.11,9.52,
35903,1661621472281,-1.0629,0.2033,0.6348,-6.17,-1.42,12.72,
35904,1661621472281,-1.1459,0.3918,0.8702,-6.86,-1.42,15.45,
35905,1661621472281,-1.2294,0.6823,0.8287,-6.46,8.15,10.89,
35906,1661621472281,-1.016,0.4225,0.1832,-7.67,8.48,14.44,
35907,1661621472291,-1.1517,0.3766,0.3629,-7.96,11.69,8.43,
35908,1661621472291,-1.0131,1.2243,0.7686,-4.37,18.04,7.33,
35909,1661621472291,-1.0883,0.7433,-0.3105,6.52,11.18,9.88,
35910,1661621472291,-0.8544,0.6657,-0.518,11.44,11.44,8.43,
35911,1661621472291,-0.8939,1.0676,0.4092,8.31,10.42,6.05,
35912,1661621472291,-1.08,1.0768,0.4156,7.51,6.62,8.16,
35913,1661621472291,-0.8886,1.0583,-0.4897,12.72,-3.19,6.51,
35914,1661621472291,-0.8041,0.9304,-0.205,18.53,10.35,7.15,
35915,1661621472291,-0.9789,1.2394,0.7598,21.52,21.33,0.68,
35916,1661621472291,-0.9486,1.2385,-0.186,29.0,10.09,0.59,
35917,1661621472291,-0.8163,0.6774,-0.1528,35.7,23.45,-1.88,
35918,1661621472291,-0.849,1.07,0.4185,35.5,20.66,-3.15,
35919,1661621472291,-0.9232,1.0314,0.0352,36.51,6.36,-5.16,
35920,1661621472291,-0.7543,0.5959,-0.415,39.91,0.37,-5.44,
35921,1661621472291,-0.8217,0.6188,0.1695,41.69,1.88,-4.52,
35922,1661621472291,-0.785,0.3849,-0.2226,41.49,-11.31,-6.43,
35923,1661621472291,-0.8715,0.4279,-0.2035,42.7,-0.56,-0.6,
35924,1661621472291,-0.9125,0.1994,0.2632,40.52,4.67,-3.7,
35925,1661621472291,-0.7924,0.0192,-0.0678,36.7,-16.39,1.58,
35926,1661621472291,-0.8593,0.3874,-0.0912,36.72,-10.64,-4.16,
35927,1661621472291,-0.8309,0.1657,0.3297,40.7,-1.08,1.76,
35928,1661621472291,-0.8646,0.0637,-0.5331,41.71,-4.97,-4.34,
35929,1661621472291,-0.7343,0.2809,-0.4047,35.5,0.27,-4.43,
35930,1661621472291,-0.8744,-0.0399,0.2969,36.92,2.3,-4.8,
35931,1661621472291,-0.9359,0.0554,0.0416,36.41,-12.07,-9.91,
35932,1661621472291,-0.8129,-0.0486,-1.1738,36.51,-27.56,-7.25,
35933,1661621472291,-0.9447,-0.1307,-0.0698,28.51,-4.12,-7.44,
35934,1661621472291,-0.9564,0.0866,0.4361,29.61,-16.82,-8.08,
35935,1661621472291,-0.848,-0.5931,-0.6552,30.31,-22.14,-6.89,
35936,1661621472291,-0.9506,-0.1175,0.3614,23.81,-2.35,-11.82,
35937,1661621472291,-1.0599,-0.4139,0.6583,21.11,0.18,-4.89,
35938,1661621472291,-0.9862,-0.6321,-0.1791,16.03,-6.49,-11.27,
35939,1661621472291,-1.0043,-0.5076,-0.0595,15.52,-7.42,-7.71,
35940,1661621472291,-1.0175,-0.7869,0.2955,16.73,0.27,-7.25,
35941,1661621472291,-0.8763,-0.5955,0.128,13.51,2.4,-9.36,
35942,1661621472307,-1.0062,-0.7645,-0.5673,8.63,-16.3,-8.63,
35943,1661621472307,-0.9779,-0.9984,-0.1982,2.23,-20.61,-11.54,
35944,1661621472307,-1.1854,-0.6741,0.2173,1.53,-24.0,-10.53,
35945,1661621472307,-1.0971,-0.9139,-0.0566,-0.99,-10.3,-0.14,
35946,1661621472307,-1.1171,-1.0809,-0.0683,-11.07,-15.12,-7.71,
35947,1661621472307,-1.2089,-0.8123,0.7281,-8.78,-9.03,6.33,
35948,1661621472307,-1.2889,-0.8148,0.6026,-9.48,-13.6,-0.33,
35949,1661621472307,-1.2269,-0.5545,0.0582,-10.46,-7.58,5.06,
35950,1661621472307,-1.3163,-0.6522,0.4371,-20.56,13.89,5.78,
35951,1661621472307,-1.2968,-0.4417,0.7725,-18.85,21.93,6.05,
35952,1661621472307,-1.1932,-0.0794,0.2335,-17.56,1.46,5.78,
35953,1661621472307,-1.2889,-0.3362,-0.3261,-16.76,-12.33,9.52,
35954,1661621472307,-1.2601,0.1887,0.5469,-21.97,-1.5,7.52,
35955,1661621472307,-1.118,0.2082,0.4844,-19.66,2.4,8.71,
35956,1661621472307,-1.056,0.2038,-0.1684,-18.85,-7.0,7.06,
35957,1661621472307,-1.1361,0.3757,0.6505,-12.96,-4.62,4.42,
35958,1661621472307,-1.1654,0.2961,1.0645,-10.57,8.22,7.7,
35959,1661621472307,-1.0336,0.3918,0.4088,-10.16,2.98,-0.97,
35960,1661621472307,-1.1547,0.3781,0.1778,-10.37,9.49,2.59,
35961,1661621472307,-1.1488,0.424,0.9381,-7.87,15.58,1.58,
35962,1661621472307,-1.0839,0.6086,0.1343,-5.47,9.66,3.96,
35963,1661621472307,-1.0555,0.4611,-0.1889,-1.57,9.16,7.52,
35964,1661621472307,-1.0756,0.4191,0.3463,0.63,11.02,4.33,
35965,1661621472307,-1.1342,0.7385,0.3907,2.74,4.42,11.16,
35966,1661621472307,-0.8915,0.4802,-0.2016,2.74,-5.55,11.9,
35967,1661621472307,-0.9594,0.632,-0.0283,6.93,-0.73,0.96,
35968,1661621472307,-1.0277,0.7473,0.6314,11.82,-0.15,3.78,
35969,1661621472307,-1.0316,0.6594,0.2242,13.42,0.44,4.97,
35970,1661621472307,-0.868,1.0734,0.1055,13.82,11.11,0.68,
35971,1661621472307,-0.7533,0.9938,0.2257,19.81,16.68,0.96,
35972,1661621472307,-1.0228,0.9318,0.4136,24.51,25.73,-1.33,
35973,1661621472307,-0.8187,1.0661,-0.1274,27.82,15.75,1.05,
35974,1661621472307,-0.934,0.9138,-0.0898,27.9,14.65,1.05,
35975,1661621472307,-0.8339,1.2331,0.1783,32.4,8.15,-3.7,
35976,1661621472307,-0.8344,1.0583,-0.162,31.62,-1.76,-1.88,
35977,1661621472322,-0.7772,0.7546,-0.4516,34.51,6.12,-4.25,
35978,1661621472322,-0.7719,1.1223,0.0342,39.02,0.02,-3.24,
35979,1661621472322,-0.8383,0.7023,0.024,40.61,-0.66,-5.62,
35980,1661621472322,-0.7929,0.8307,-0.0077,41.02,2.14,-8.81,
35981,1661621472322,-0.7723,0.4372,0.0235,41.31,1.3,-10.27,
35982,1661621472322,-0.872,0.36,0.0753,39.71,4.33,-12.55,
35983,1661621472322,-0.829,0.5803,0.0396,42.01,0.18,-9.36,
35984,1661621472322,-0.8436,0.029,-0.2778,46.1,0.53,-8.08,
35985,1661621472322,-0.681,0.028,-0.1801,44.91,4.42,-4.71,
35986,1661621472322,-0.8051,-0.0584,-0.227,46.01,1.3,-3.88,
35987,1661621472322,-0.7582,-0.4778,-0.5742,42.52,-5.98,-5.25,
35988,1661621472328,-0.8012,-0.3992,-0.4643,32.89,-23.24,-2.07,
35989,1661621472328,-0.8392,-0.4197,-0.0629,31.23,-22.81,-1.42,
35990,1661621472328,-0.9618,-0.4944,-0.248,31.81,-18.75,-5.71,
35991,1661621472328,-1.0228,-0.4368,-0.0834,25.92,-17.91,-4.43,
35992,1661621472328,-1.0424,-0.6024,0.5435,22.8,-12.67,-8.54,
35993,1661621472328,-1.0121,-0.2845,0.1915,25.41,-12.67,-12.27,
35994,1661621472328,-0.9052,-0.7088,-0.163,19.63,-6.49,-8.72,
35995,1661621472328,-0.9862,-0.348,0.7525,12.52,9.25,-11.27,
35996,1661621472328,-0.8602,-0.2884,-0.1508,13.53,-7.68,-11.36,
35997,1661621472328,-1.0297,-0.7733,-0.7167,15.62,-12.76,-10.09,
35998,1661621472328,-1.1473,-0.2923,0.3404,9.33,-14.36,-3.42,
35999,1661621472328,-1.1312,-0.4876,0.17,4.72,-14.44,-2.07,
36000,1661621472328,-0.9999,-0.5018,-0.4282,0.92,-13.43,-2.25,
36001,1661621472328,-1.058,-0.658,0.1807,-1.57,-5.81,-3.24,
36002,1661621472328,-1.2455,-0.7952,0.4849,-5.27,-8.77,-1.42,
36003,1661621472328,-1.0306,-0.4202,0.2579,-8.46,-5.74,-7.71,
36004,1661621472328,-1.0638,-0.7415,0.1339,-2.27,1.21,-3.06,
36005,1661621472328,-1.1058,-0.952,0.3458,-10.16,13.72,-4.89,
36006,1661621472328,-1.1596,-0.2108,0.6099,-17.5,13.55,-6.08,
36007,1661621472328,-1.2074,-0.9681,0.0513,-16.78,1.63,0.77,
36008,1661621472328,-1.4086,-0.4564,-0.0268,-12.38,-14.69,-1.15,
36009,1661621472328,-1.1317,-0.5076,0.481,-10.28,-5.05,4.6,
36010,1661621472328,-1.0614,-0.5198,0.3633,-16.17,-5.31,3.32,
36011,1661621472328,-1.2767,-0.0823,0.084,-18.76,-6.58,4.24,
36012,1661621472328,-1.1239,-0.534,0.5411,-21.07,1.63,4.97,
36013,1661621472328,-1.1185,0.3322,0.6192,-22.45,-5.98,4.42,
36014,1661621472328,-1.1815,0.2634,0.1104,-8.46,-9.28,8.25,
36015,1661621472328,-1.2958,-0.0433,0.9371,-3.67,8.82,11.9,
36016,1661621472328,-1.0609,0.4958,0.9717,-10.66,12.71,10.89,
36017,1661621472328,-0.9784,0.5666,-0.1625,-14.46,0.44,8.25,
36018,1661621472328,-1.0853,0.3947,0.2466,-7.38,2.98,7.43,
36019,1661621472328,-1.0526,0.7609,0.8121,-5.96,2.4,4.79,
36020,1661621472328,-0.9701,0.6891,-0.1786,-1.37,-7.58,9.24,
36021,1661621472344,-0.8969,0.8102,-0.4638,-1.17,-12.24,8.89,
36022,1661621472344,-0.9374,1.05,0.5611,1.1,14.4,10.52,
36023,1661621472344,-1.0775,0.8454,0.773,3.91,17.61,8.34,
36024,1661621472344,-0.9183,1.0002,-0.4838,8.93,3.23,5.41,
36025,1661621472344,-0.9594,0.8625,0.5255,12.53,17.61,4.42,
36026,1661621472344,-0.9545,0.9601,1.0333,17.61,25.82,2.13,
36027,1661621472344,-0.9174,1.0505,-0.0434,22.82,12.88,-2.34,
36028,1661621472344,-0.7455,0.7053,-0.5146,25.32,9.08,-2.97,
36029,1661621472344,-1.0062,0.9035,0.5811,28.01,14.48,-4.06,
36030,1661621472344,-0.8246,0.8107,-0.0991,31.9,8.15,-2.07,
36031,1661621472344,-0.7553,0.6369,-0.6845,35.1,-0.73,-0.42,
36032,1661621472344,-0.8544,0.6696,0.0064,32.4,10.35,0.59,
36033,1661621472344,-0.7919,0.5524,0.483,32.02,-0.32,-4.98,
36034,1661621472344,-0.8461,0.5441,-0.2866,36.11,-9.8,-1.06,
36035,1661621472344,-0.621,0.6369,0.1895,43.1,-5.31,-1.33,
36036,1661621472344,-0.9999,0.5158,0.2813,42.01,3.14,-2.97,
36037,1661621472344,-0.9081,0.5148,-0.1733,38.9,-4.62,-3.52,
36038,1661621472344,-0.8344,0.4225,-0.1694,37.42,4.93,-3.24,
36039,1661621472344,-0.8173,0.7458,0.7281,37.01,18.71,-7.89,
36040,1661621472344,-0.7587,0.4064,-1.0351,44.61,-14.79,-11.36,
36041,1661621472344,-0.7543,0.2043,-0.5908,42.2,-9.7,-6.35,
36042,1661621472344,-0.8724,0.508,0.7764,35.8,0.11,-9.73,
36043,1661621472344,-0.8495,0.3044,0.0757,37.51,-13.09,-6.17,
36044,1661621472344,-0.8407,-0.0408,-1.3261,40.01,-16.46,-9.63,
36045,1661621472344,-0.9667,-0.0379,0.1329,38.32,-0.23,-10.0,
36046,1661621472344,-1.0067,-0.1849,0.462,32.22,-9.03,-20.3,
36047,1661621472344,-0.9159,-0.3685,-0.7436,30.6,-21.97,-15.65,
36048,1661621472344,-0.9769,-0.6321,0.1617,33.5,-5.31,-10.99,
36049,1661621472344,-0.995,-0.3699,0.7105,23.83,1.63,-10.0,
36050,1661621472344,-0.8637,-0.5423,-0.308,19.31,-0.32,-13.56,
36051,1661621472344,-0.8837,-0.9534,-0.3183,19.43,-8.7,-9.18,
36052,1661621472344,-1.0595,-0.7059,0.2847,18.12,-15.53,-7.62,
36053,1661621472344,-0.8939,-0.7415,-0.1098,13.53,-13.76,-5.25,
36054,1661621472344,-1.0448,-0.8421,-0.3871,10.82,-11.99,-6.61,
36055,1661621472344,-1.0844,-1.0584,0.0596,3.01,-24.25,0.31,
36056,1661621472360,-1.1405,-0.8626,0.3926,-2.88,-26.79,-4.43,
36057,1661621472360,-1.1161,-0.4197,0.3521,4.43,-14.62,-1.15,
36058,1661621472360,-0.9584,-0.9632,-0.288,-0.99,-4.46,-0.33,
36059,1661621472360,-1.1659,-0.6141,0.6202,-10.26,10.25,-1.33,
36060,1661621472360,-1.1898,-0.5272,0.5889,-10.77,-4.04,-4.98,
36061,1661621472360,-1.2235,-0.6522,-0.0248,-6.08,-9.28,-4.43,
36062,1661621472360,-1.2728,-0.2977,0.2042,-12.57,-1.16,-0.6,
36063,1661621472360,-1.244,-0.4686,0.4888,-20.36,6.19,3.5,
36064,1661621472360,-1.1195,-0.055,0.2589,-18.06,8.48,5.69,
36065,1661621472360,-1.1674,-0.1028,-0.1,-13.18,-1.66,2.86,
36066,1661621472360,-1.2704,-0.2293,0.1461,-15.68,-1.85,2.41,
36067,1661621472360,-1.2899,0.1193,0.6651,-17.36,3.07,3.5,
36068,1661621472360,-1.1962,-0.1732,0.3716,-15.07,12.71,5.69,
36069,1661621472360,-1.1591,0.1149,-0.0112,-13.76,3.23,6.78,
36070,1661621472360,-1.2733,0.2448,0.4517,-14.28,14.4,2.5,
36071,1661621472360,-1.0272,-0.0486,0.5723,-12.05,6.7,7.24,
36072,1661621472360,-1.1791,0.1594,0.126,-8.08,-0.56,2.31,
36073,1661621472360,-1.2977,0.3088,0.2593,-3.49,-3.28,1.58,
36074,1661621472360,-1.0883,0.0724,0.3008,-10.08,-7.42,7.33,
36075,1661621472360,-1.1014,0.5427,0.7003,-10.17,-2.52,5.59,
36076,1661621472360,-1.0443,0.4142,0.6334,-6.97,-6.07,10.52,
36077,1661621472360,-1.1322,0.4811,0.1031,-0.16,-2.18,9.07,
36078,1661621472360,-0.9159,0.8034,0.6934,2.54,14.74,9.16,
36079,1661621472360,-1.1156,0.7043,0.6173,1.82,11.11,7.33,
36080,1661621472360,-0.9779,1.0363,-0.0073,2.72,4.93,5.5,
36081,1661621472360,-0.8954,0.8556,0.1055,6.81,7.46,5.78,
36082,1661621472372,-1.0438,0.863,0.585,7.53,16.51,3.87,
36083,1661621472372,-0.8866,1.4094,-0.2075,14.43,6.62,-2.78,
36084,1661621472372,-0.7382,1.0837,-0.5742,25.52,4.76,-0.69,
36085,1661621472372,-0.8578,0.903,0.2442,24.71,22.77,-1.97,
36086,1661621472372,-0.8388,1.2541,0.1036,24.02,6.7,-0.14,
36087,1661621472372,-0.8314,0.964,-0.4184,22.73,1.8,-2.87,
36088,1661621472372,-0.8573,1.1223,0.147,31.12,3.49,-4.8,
36089,1661621472372,-0.8861,0.7741,0.1763,37.01,5.1,-4.06,
36090,1661621472372,-0.8724,0.7414,0.0132,43.6,10.68,-9.54,
36091,1661621472372,-0.8016,0.9128,-0.0659,44.39,8.06,-10.99,
36092,1661621472372,-0.8378,0.3347,0.043,42.91,10.35,-9.08,
36093,1661621472372,-0.8114,0.4982,0.2173,42.11,11.86,-11.63,
36094,1661621472372,-0.8602,0.4284,-0.2299,43.8,0.95,-10.18,
36095,1661621472372,-0.7826,0.0217,-0.4428,41.69,-10.9,-8.44,
36096,1661621472378,-0.8441,0.0949,-0.0922,40.01,-2.09,-5.9,
36097,1661621472378,-0.8309,0.0187,0.1519,40.3,0.27,-4.25,
36098,1661621472378,-0.7391,-0.0286,-0.5429,41.11,-3.62,-4.61,
36099,1661621472378,-0.8041,-0.1566,-0.3876,39.82,-4.29,-3.7,
36100,1661621472378,-0.9232,-0.1976,0.1827,33.91,-10.64,0.13,
36101,1661621472378,-0.7577,-0.0218,-0.4594,34.02,-21.12,-4.8,
36102,1661621472378,-0.8324,-0.3699,-0.4755,33.91,-14.27,-2.34,
36103,1661621472378,-0.9515,0.0129,0.4537,26.92,-3.02,-10.81,
36104,1661621472378,-0.9647,-0.2293,-0.1772,25.61,-17.23,-7.53,
36105,1661621472378,-0.9955,-0.3782,-0.2206,31.41,-16.05,-10.18,
36106,1661621472378,-1.0145,-0.1185,0.42,24.21,-9.96,-10.9,
36107,1661621472378,-0.9364,-0.2718,0.3472,15.45,-5.74,-7.71,
36108,1661621472378,-0.9291,-0.3089,-0.1674,16.73,-5.14,-8.81,
36109,1661621472378,-0.9008,-0.5096,-0.2665,16.93,-5.39,-6.61,
36110,1661621472378,-1.1439,-0.5408,0.3892,13.91,-6.41,-12.64,
36111,1661621472378,-1.1156,-0.4197,0.001,12.01,-19.18,-15.01,
36112,1661621472378,-1.0311,-0.972,-0.4706,9.73,-6.24,-10.18,
36113,1661621472378,-0.9584,-0.5726,0.3922,0.51,1.04,-9.27,
36114,1661621472378,-0.9852,-0.8118,-0.0634,-3.87,-10.8,-7.62,
36115,1661621472378,-0.8422,-0.9427,-0.2143,-5.38,-21.47,-4.61,
36116,1661621472378,-1.101,-0.7156,0.5684,-4.28,-4.88,-9.54,
36117,1661621472378,-1.3866,-0.9485,0.3155,-8.26,-5.98,-3.24,
36118,1661621472378,-1.2577,-0.9158,0.1202,-16.27,-1.92,-5.44,
36119,1661621472378,-1.2567,-0.5648,0.836,-16.67,0.11,-4.8,
36120,1661621472378,-1.1434,-0.8445,0.1954,-11.77,-14.44,-0.14,
36121,1661621472378,-1.1586,-0.2967,0.6519,-14.86,13.98,4.05,
36122,1661621472378,-1.1176,-0.4661,0.6763,-16.56,14.82,8.25,
36123,1661621472378,-1.2157,-0.1199,-0.1733,-18.08,0.78,4.42,
36124,1661621472378,-1.2831,-0.1898,0.6016,-21.28,-3.53,9.88,
36125,1661621472378,-1.2406,0.1462,0.7042,-17.05,2.9,10.07,
36126,1661621472378,-0.9779,0.4606,0.0069,-13.86,-7.68,9.24,
36127,1661621472378,-1.0668,0.1437,-0.3837,-12.77,0.11,10.89,
36128,1661621472378,-1.1762,0.3317,1.0269,-14.37,10.59,8.52,
36129,1661621472394,-1.1478,0.6379,0.4498,-11.36,-2.35,10.07,
36130,1661621472394,-1.1141,0.4128,-0.0302,-6.88,-2.85,9.79,
36131,1661621472394,-1.0638,0.7682,0.752,-5.67,-0.23,5.69,
36132,1661621472394,-1.0658,0.634,0.8565,-6.28,9.25,6.24,
36133,1661621472394,-1.0204,0.5724,0.2735,-3.96,10.42,2.41,
36134,1661621472394,-1.0521,0.7853,-0.0702,3.32,9.32,4.51,
36135,1661621472394,-1.0282,0.6183,0.5015,9.21,17.27,7.43,
36136,1661621472394,-0.952,0.8195,0.566,8.02,16.27,3.05,
36137,1661621472394,-0.9642,0.9763,-0.1674,10.23,6.7,4.69,
36138,1661621472394,-0.8026,0.4514,-0.2695,13.01,1.04,10.71,
36139,1661621472394,-1.0302,1.0163,0.4757,14.93,3.74,3.6,
36140,1661621472394,-1.0678,1.0798,0.4703,19.0,0.61,1.58,
36141,1661621472399,-0.7948,0.6618,-0.226,23.52,-6.58,2.41,
36142,1661621472399,-0.893,0.8371,0.2559,27.12,4.67,0.68,
36143,1661621472399,-0.8793,0.8962,0.5645,27.23,8.99,0.68,
36144,1661621472399,-0.9994,0.8913,0.2222,32.92,7.22,0.31,
36145,1661621472399,-0.7636,0.8718,-0.2055,35.61,14.07,-5.25,
36146,1661621472399,-0.8641,0.6213,0.3257,32.71,9.83,-0.6,
36147,1661621472399,-0.7567,1.1188,0.2877,34.8,12.79,-9.08,
36148,1661621472399,-0.6449,0.5475,-0.787,41.4,-5.14,-6.08,
36149,1661621472399,-0.7919,0.4074,-0.6786,42.32,2.81,-9.54,
36150,1661621472399,-0.8602,0.9333,0.2486,37.3,-5.48,-6.8,
36151,1661621472399,-0.7782,0.5983,-0.163,35.71,-5.65,-8.99,
36152,1661621472399,-0.6459,0.5724,-0.395,38.9,1.3,-12.46,
36153,1661621472399,-0.7645,0.4152,-0.1835,45.6,1.21,-11.36,
36154,1661621472399,-0.8978,0.3342,0.2979,46.39,-2.85,-14.91,
36155,1661621472399,-0.7972,0.1364,-0.0517,41.22,-5.05,-13.01,
36156,1661621472399,-0.8441,-0.1922,-0.3871,40.7,-6.24,-11.08,
36157,1661621472399,-0.8314,-0.1927,-0.3715,39.3,4.0,-10.53,
36158,1661621472399,-0.9564,-0.0775,0.1773,39.3,4.42,-8.9,
36159,1661621472399,-0.8099,-0.6385,-0.3588,37.01,-13.17,-9.54,
36160,1661621472399,-0.9437,-0.4725,-0.435,32.32,-19.85,-11.91,
36161,1661621472399,-1.0643,-0.5955,0.2955,29.12,-17.75,-4.61,
36162,1661621472399,-0.9662,-0.6375,0.1778,23.23,-15.2,-5.25,
36163,1661621472399,-0.9027,-0.6605,-0.1869,21.52,-14.36,-6.17,
36164,1661621472399,-1.0668,-0.721,-0.0024,16.32,-15.03,-3.42,
36165,1661621472399,-1.0072,-0.4525,0.3599,14.53,-8.77,-3.88,
36166,1661621472399,-0.9677,-0.72,0.0611,11.83,-7.34,-2.69,
36167,1661621472399,-0.9945,-0.3777,-0.3256,9.63,-8.51,-6.08,
36168,1661621472399,-1.0848,-0.4652,-0.3207,7.71,-12.41,-2.78,
36169,1661621472399,-1.2509,-0.7166,0.5401,0.53,-0.06,-6.17,
36170,1661621472399,-1.0292,-0.1707,0.0045,-4.39,-22.31,-9.27,
36171,1661621472399,-0.912,-0.5916,-0.7382,-0.16,-14.62,-5.25,
36172,1661621472399,-1.0883,-0.5789,0.711,-3.26,5.19,-3.24,
36173,1661621472399,-1.1127,-0.2708,0.4029,-8.98,-1.5,-7.44,
36174,1661621472399,-1.1835,-0.6014,-0.1357,-8.77,-4.97,-5.99,
36175,1661621472415,-1.2919,-0.4285,0.4893,-8.26,-3.95,-7.62,
36176,1661621472415,-1.2216,-0.6107,0.7081,-10.17,8.32,-5.07,
36177,1661621472415,-1.1981,-0.5618,0.3384,-13.86,12.54,-3.97,
36178,1661621472415,-1.2274,-0.3089,-0.1689,-11.88,12.62,-4.34,
36179,1661621472415,-1.1586,-0.6595,0.5303,-12.46,10.59,0.96,
36180,1661621472415,-1.2694,-0.2088,0.4092,-15.95,-0.4,-3.24,
36181,1661621472415,-1.1342,-0.2059,-0.1752,-18.56,-10.04,5.41,
36182,1661621472415,-1.2216,-0.4183,0.2989,-18.58,-3.62,6.24,
36183,1661621472415,-1.2557,0.2023,0.7725,-17.47,-2.35,8.25,
36184,1661621472415,-1.1918,-0.0755,0.0777,-11.96,-18.25,7.88,
36185,1661621472415,-1.2035,0.3107,0.734,-8.48,-6.32,8.43,
36186,1661621472415,-1.1327,0.3786,0.9464,-7.68,-2.09,9.61,
36187,1661621472415,-1.3104,0.3342,0.3497,-7.47,5.77,9.16,
36188,1661621472415,-1.018,0.6755,0.3648,-4.57,14.82,4.51,
36189,1661621472415,-1.0824,0.4553,0.4459,-4.17,13.72,7.61,
36190,1661621472415,-1.1351,0.6003,0.4268,-1.18,11.61,4.14,
36191,1661621472415,-0.9681,1.0886,0.043,1.43,-3.19,6.51,
36192,1661621472415,-1.0189,0.7072,-0.1396,5.53,-2.78,6.24,
36193,1661621472423,-0.995,0.9645,0.2247,8.81,-2.59,5.32,
36194,1661621472423,-0.9784,1.0309,0.3433,7.82,6.7,6.51,
36195,1661621472423,-0.9686,1.0251,0.1964,10.03,7.72,5.15,
36196,1661621472423,-0.8905,1.0817,-0.1044,13.72,4.59,1.76,
36197,1661621472423,-0.9252,0.9738,0.522,19.83,17.78,1.49,
36198,1661621472423,-0.9247,1.0681,0.6519,27.12,22.77,-2.87,
36199,1661621472423,-0.8539,0.986,-0.1352,32.51,15.84,-2.34,
36200,1661621472423,-0.8471,0.716,-0.1235,32.61,17.61,-5.07,
36201,1661621472423,-0.9262,0.9318,0.3336,32.92,15.91,-7.71,
36202,1661621472423,-0.8471,0.6569,-0.3666,35.89,-0.49,-8.63,
36203,1661621472423,-0.7289,0.5285,-0.3661,41.31,-0.99,-4.25,
36204,1661621472423,-0.87,0.4733,0.2173,44.39,2.64,-2.6,
36205,1661621472423,-0.7367,0.3742,0.0914,44.9,-5.22,-6.43,
36206,1661621472423,-0.8983,0.3693,-0.1396,35.61,-12.92,-5.99,
36207,1661621472423,-0.8051,0.132,-0.0912,38.52,-15.03,-4.43,
36208,1661621472423,-0.9369,0.2868,0.3272,37.82,-2.01,-2.25,
36209,1661621472423,-0.7763,0.4221,0.2105,38.11,13.05,-4.25,
36210,1661621472423,-0.7811,0.0319,-0.7172,39.62,4.07,-5.53,
36211,1661621472423,-0.7592,0.1423,-0.5234,36.52,10.76,-8.35,
36212,1661621472423,-0.8622,0.3674,0.2715,36.72,-4.62,-6.98,
36213,1661621472423,-0.8666,0.0915,-0.3979,36.0,-15.53,-7.16,
36214,1661621472423,-0.7723,0.0842,-0.9711,36.7,-22.9,-8.9,
36215,1661621472423,-0.8886,-0.0491,0.0621,30.62,-7.0,-8.17,
36216,1661621472423,-0.9354,0.1149,0.3238,28.13,-8.77,-11.45,
36217,1661621472423,-0.8876,-0.3543,-0.5859,31.42,-21.88,-10.53,
36218,1661621472423,-1.0209,-0.304,0.4053,30.71,-8.35,-15.65,
36219,1661621472423,-1.0238,-0.2757,0.5953,23.92,-1.76,-12.64,
36220,1661621472423,-0.8939,-0.7171,-0.2534,18.62,-2.01,-8.72,
36221,1661621472423,-0.9345,-0.5926,-0.3124,19.32,7.89,-10.53,
36222,1661621472423,-1.0375,-0.5867,0.109,18.32,0.87,-7.16,
36223,1661621472423,-0.9027,-0.7576,-0.1118,14.23,-11.66,-12.0,
36224,1661621472423,-1.0306,-0.7156,-0.4462,12.01,-24.6,-5.9,
36225,1661621472423,-1.0165,-0.9691,-0.2602,8.41,-18.08,-7.25,
36226,1661621472423,-1.1771,-0.8275,0.2193,1.12,-15.88,-6.98,
36227,1661621472439,-1.0419,-0.765,0.2496,-3.56,-15.63,-2.34,
36228,1661621472439,-1.059,-0.9354,-0.1894,-8.86,-25.27,-6.43,
36229,1661621472439,-1.1825,-0.7088,0.6407,-6.86,-5.14,-5.9,
36230,1661621472439,-1.2186,-0.8089,0.855,-10.67,5.36,-1.7,
36231,1661621472439,-1.3197,-0.7166,0.4092,-13.47,5.6,-2.87,
36232,1661621472439,-1.1996,-0.3465,-0.018,-12.38,5.6,-0.05,
36233,1661621472439,-1.3212,-0.5467,0.6529,-13.06,8.15,2.13,
36234,1661621472439,-1.1552,-0.0975,0.4898,-16.85,4.17,3.96,
36235,1661621472439,-1.038,-0.2899,-0.4223,-13.16,-5.39,4.42,
36236,1661621472439,-1.1986,-0.0213,0.3223,-19.28,-4.21,4.88,
36237,1661621472439,-1.1708,0.2629,0.9053,-15.66,4.07,3.96,
36238,1661621472439,-1.2958,0.0168,0.3677,-16.37,-11.66,6.14,
36239,1661621472439,-1.2177,0.1647,-0.2294,-12.48,0.53,8.43,
36240,1661621472439,-1.162,0.321,0.9263,-11.87,21.09,8.43,
36241,1661621472439,-1.1303,0.174,0.8433,-18.06,17.78,7.15,
36242,1661621472439,-0.9984,0.3918,-0.1879,-12.84,-3.53,3.96,
36243,1661621472439,-1.0853,0.1237,0.3609,-3.76,3.83,9.16,
36244,1661621472439,-1.057,0.3527,0.7667,-2.88,10.35,1.58,
36245,1661621472439,-1.0717,0.7023,0.3072,0.51,4.17,1.58,
36246,1661621472439,-0.9091,0.2321,-0.3705,-0.07,-0.99,5.87,
36247,1661621472439,-1.1766,0.6379,0.4063,-4.17,-1.08,3.78,
36248,1661621472439,-1.1337,0.6965,0.7593,-0.27,2.81,7.61,
36249,1661621472439,-0.9994,0.6017,0.295,5.32,-5.05,10.8,
36250,1661621472439,-1.0023,0.8928,0.0425,10.92,0.7,7.43,
36251,1661621472439,-1.0043,0.7346,0.7022,14.61,12.62,6.97,
36252,1661621472439,-1.1903,0.8527,0.7696,14.03,20.57,7.88,
36253,1661621472439,-0.8646,1.0671,0.0279,18.03,10.85,5.78,
36254,1661621472439,-0.9349,0.8122,-0.0229,18.61,19.3,3.78,
36255,1661621472439,-0.8685,1.2087,0.3023,23.52,16.94,-5.9,
36256,1661621472439,-0.765,0.9079,-0.4516,29.82,0.02,-1.15,
36257,1661621472439,-0.7211,1.0573,0.0582,31.1,14.48,-4.34,
36258,1661621472439,-0.871,1.0983,0.0977,33.42,1.3,-3.79,
36259,1661621472439,-0.7577,0.6608,-0.353,32.42,-2.18,0.41,
36260,1661621472439,-0.7494,1.0412,0.0963,32.8,-0.73,-7.44,
36261,1661621472439,-0.764,0.8166,0.1553,38.6,-1.25,-5.35,
36262,1661621472455,-0.7909,0.6052,-0.0756,44.32,-0.06,-9.54,
36263,1661621472455,-0.8451,0.697,-0.0092,42.5,6.7,-2.97,
36264,1661621472455,-0.8182,0.4826,0.0972,42.59,14.91,-7.16,
36265,1661621472455,-0.7694,0.3723,-0.2602,43.51,11.35,-10.53,
36266,1661621472455,-0.8646,0.2009,-0.2675,41.91,2.04,-9.36,
36267,1661621472455,-0.7328,-0.1024,-0.2324,45.9,-11.23,-10.09,
36268,1661621472455,-0.7811,-0.0071,-0.4135,43.1,-14.44,-11.18,
36269,1661621472455,-0.7372,-0.4422,-0.4511,39.11,-10.9,-4.52,
36270,1661621472455,-0.871,-0.4046,-0.1044,33.01,-15.96,-6.52,
36271,1661621472455,-0.8695,-0.3992,0.0811,34.22,-17.23,-4.8,
36272,1661621472455,-0.9989,-0.4324,-0.1171,32.61,-18.68,-3.33,
36273,1661621472455,-0.9354,-0.3353,0.1758,28.01,-12.07,-1.79,
36274,1661621472455,-1.0609,-0.5457,0.3682,24.82,-8.35,-4.52,
36275,1661621472455,-1.0883,-0.3851,0.2593,19.43,-7.17,0.31,
36276,1661621472455,-0.953,-0.261,-0.2538,20.53,-10.3,-3.33,
36277,1661621472455,-1.0814,-0.4227,0.2232,17.72,1.21,-5.25,
36278,1661621472455,-0.9721,-0.0189,-0.0068,15.83,-9.28,-8.63,
36279,1661621472455,-0.912,-0.5692,-0.7485,15.72,-20.28,-4.61,
36280,1661621472455,-1.0404,-0.286,0.2925,12.01,-9.37,-7.44,
36281,1661621472455,-1.0267,-0.4066,0.1763,6.54,-9.54,-6.35,
36282,1661621472455,-0.997,-0.554,-0.2314,3.42,-11.23,-8.81,
36283,1661621472455,-1.0121,-0.473,-0.1674,1.64,-16.46,-7.89,
36284,1661621472455,-1.0555,-0.7015,0.3648,0.33,-3.95,-9.27,
36285,1661621472455,-1.0595,-0.6043,0.483,-6.57,8.22,-10.9,
36286,1661621472455,-1.0692,-0.639,-0.0966,-4.77,6.53,-11.08,
36287,1661621472455,-1.1259,-1.0516,0.1158,-8.48,4.0,-10.09,
36288,1661621472455,-1.2938,-0.4339,0.6304,-13.47,0.11,-10.99,
36289,1661621472455,-1.1483,-0.782,-0.1171,-13.38,-9.28,-4.8,
36290,1661621472469,-1.205,-0.7972,-0.1039,-16.37,-2.78,1.76,
36291,1661621472469,-1.3104,-0.3709,0.9693,-16.67,10.18,2.41,
36292,1661621472469,-1.119,-0.4822,0.8028,-17.95,-11.06,1.67,
36293,1661621472469,-1.2362,-0.2825,-0.0898,-18.37,-8.27,2.59,
36294,1661621472469,-1.1835,-0.2059,0.6666,-15.57,5.0,14.81,
36295,1661621472469,-1.4691,0.0461,0.8399,-14.98,9.66,14.26,
36296,1661621472469,-1.1083,0.1574,0.2042,-18.67,2.3,8.16,
36297,1661621472469,-1.2587,-0.0936,0.5303,-18.08,1.04,8.89,
36298,1661621472469,-1.0995,0.7223,0.8277,-10.86,3.33,3.41,
36299,1661621472469,-1.1522,0.6315,0.2491,-3.87,-12.07,6.05,
36300,1661621472469,-1.038,0.2492,-0.079,-3.76,4.26,9.52,
36301,1661621472469,-1.0692,0.7931,0.565,-6.77,2.04,6.97,
36302,1661621472474,-1.0472,0.6457,0.4024,-12.15,8.39,2.68,
36303,1661621472474,-1.0111,0.7028,0.1661,-6.77,0.44,3.5,
36304,1661621472474,-0.9408,0.8249,0.0499,-3.17,7.96,5.5,
36305,1661621472474,-1.0458,0.7985,0.6002,7.82,10.09,1.4,
36306,1661621472474,-0.9911,0.9587,0.1573,15.42,12.88,2.13,
36307,1661621472474,-0.9022,0.8708,-0.1303,19.02,11.61,2.04,
36308,1661621472474,-0.8866,0.6794,0.2022,12.82,21.26,2.13,
36309,1661621472474,-1.0365,1.1125,0.4063,13.83,10.09,-3.61,
36310,1661621472474,-0.9042,0.7399,-0.2758,21.02,6.53,0.59,
36311,1661621472474,-0.8646,0.6603,-0.0346,27.9,10.42,-1.06,
36312,1661621472474,-0.953,0.8913,0.3326,30.81,9.99,1.4,
36313,1661621472474,-0.7987,0.8307,0.1978,29.1,5.43,-1.33,
36314,1661621472474,-0.9193,0.5807,-0.1161,28.02,-1.92,-3.52,
36315,1661621472474,-0.8588,0.5065,0.212,33.22,-0.4,-1.24,
36316,1661621472474,-0.9525,0.7956,0.3492,35.8,0.95,-6.98,
36317,1661621472474,-0.7357,0.6862,-0.0312,43.8,8.22,-3.79,
36318,1661621472474,-0.6747,0.4689,-0.2299,38.7,4.17,-2.6,
36319,1661621472474,-0.8632,0.6237,0.0465,32.42,10.42,-7.8,
36320,1661621472474,-0.8026,0.5978,-0.1591,36.6,-7.0,-3.24,
36321,1661621472474,-0.765,0.5056,-0.2426,42.4,-1.16,-3.06,
36322,1661621472474,-0.6918,0.7018,-0.4892,45.9,-5.81,-9.73,
36323,1661621472474,-0.7518,0.2048,-0.6503,39.51,-9.03,-7.8,
36324,1661621472474,-0.7982,0.3268,-0.1313,35.21,2.04,-14.64,
36325,1661621472474,-0.8422,0.3635,0.0987,39.5,-8.51,-13.92,
36326,1661621472474,-0.7958,-0.0027,-0.5971,41.92,-13.76,-17.2,
36327,1661621472474,-0.8573,0.1545,-0.0336,37.5,-8.51,-13.01,
36328,1661621472474,-0.9603,-0.3314,0.4986,35.51,1.04,-11.18,
36329,1661621472474,-0.8558,-0.2269,-0.2573,36.8,-6.49,-12.37,
36330,1661621472474,-1.0038,-0.4603,-0.2812,35.12,-6.65,-8.99,
36331,1661621472474,-0.9594,-0.7044,0.3873,26.33,-1.85,-4.8,
36332,1661621472474,-0.8964,-0.4774,-0.0038,18.82,-6.15,-7.8,
36333,1661621472474,-0.8344,-0.9227,-0.642,22.6,-17.99,-0.97,
36334,1661621472474,-0.9877,-0.7679,0.0049,16.71,-17.91,-7.8,
36335,1661621472474,-1.0531,-0.6146,0.481,13.02,-7.58,-5.25,
36336,1661621472474,-0.9242,-0.8265,-0.0209,8.31,-19.42,-5.8,
36337,1661621472490,-1.0184,-0.6561,-0.6298,6.02,-23.5,-7.35,
36338,1661621472490,-1.0346,-0.804,0.5235,6.74,-9.96,-4.34,
36339,1661621472490,-1.183,-0.5071,0.5718,-1.47,-5.81,-3.15,
36340,1661621472490,-0.9457,-0.5921,-0.4326,-3.26,-10.64,-0.97,
36341,1661621472490,-1.1888,-0.7264,0.4249,-3.37,-1.92,-5.99,
36342,1661621472490,-1.1566,-0.1771,0.5748,-4.57,-4.21,-6.61,
36343,1661621472490,-1.1078,-0.6277,-0.2714,-5.69,-7.34,-4.43,
36344,1661621472490,-1.1493,-0.6072,-0.0912,-12.66,2.4,-3.33,
36345,1661621472490,-1.2865,-0.1912,0.3423,-13.76,0.78,-2.43,
36346,1661621472490,-1.2387,-0.4158,0.2681,-14.15,-0.56,-1.33,
36347,1661621472490,-1.1317,-0.0921,0.149,-15.88,-5.39,-2.43,
36348,1661621472490,-1.1503,-0.3651,0.1827,-11.36,-1.59,1.58,
36349,1661621472490,-1.245,-0.1248,0.6685,-13.67,8.15,-1.61,
36350,1661621472490,-1.2152,-0.0638,0.4962,-12.48,5.77,1.76,
36351,1661621472490,-1.1596,-0.348,0.2115,-16.37,2.4,5.06,
36352,1661621472490,-1.1796,-0.0902,0.3843,-16.56,1.71,3.23,
36353,1661621472490,-1.2396,0.1393,0.5567,-13.96,2.73,5.41,
36354,1661621472490,-1.1283,-0.0794,0.2637,-12.28,-3.78,7.24,
36355,1661621472490,-1.2504,0.2565,0.3179,-10.66,-0.32,6.33,
36356,1661621472490,-1.0555,0.1164,0.4346,-8.08,2.64,10.16,
36357,1661621472490,-1.1327,0.3,0.3897,-8.68,-3.02,7.15,
36358,1661621472490,-1.0785,0.6301,0.4752,-5.76,0.61,5.24,
36359,1661621472490,-1.0468,0.3288,0.1378,-4.28,-5.05,11.62,
36360,1661621472490,-1.0057,0.7648,0.2852,-0.36,-2.09,7.7,
36361,1661621472490,-0.9174,0.7267,0.5176,4.81,-0.15,4.24,
36362,1661621472490,-1.1405,0.6706,0.3819,9.63,6.7,7.43,
36363,1661621472490,-0.9369,0.9362,-0.0493,15.52,10.68,9.42,
36364,1661621472490,-0.994,0.7375,0.1934,12.53,17.44,6.78,
36365,1661621472490,-0.8798,1.1428,0.3541,10.11,21.5,4.33,
36366,1661621472490,-0.9799,1.1198,0.023,15.92,4.17,3.05,
36367,1661621472490,-0.9305,0.7546,-0.1064,17.43,6.7,-0.69,
36368,1661621472490,-0.9232,1.1804,0.315,19.52,4.17,-5.35,
36369,1661621472490,-0.786,1.0314,0.0865,24.22,7.8,-1.06,
36370,1661621472490,-0.8637,1.0168,0.2066,32.2,17.61,-1.52,
36371,1661621472490,-0.8998,0.8718,0.0152,35.03,13.47,-2.43,
36372,1661621472505,-0.868,0.6545,-0.1474,34.61,11.95,-5.62,
36373,1661621472505,-0.8485,0.9504,0.3736,40.2,13.47,-7.07,
36374,1661621472505,-0.892,0.5026,-0.1342,45.8,-3.28,-4.16,
36375,1661621472505,-0.6698,0.4001,-0.3427,43.62,-8.18,-4.71,
36376,1661621472505,-0.8114,0.5666,0.1763,40.92,0.37,-4.89,
36377,1661621472505,-0.9022,0.2765,-0.1249,42.0,-3.62,-4.98,
36378,1661621472505,-0.8134,-0.0189,-0.5683,43.31,-2.43,0.41,
36379,1661621472505,-0.8417,0.0978,0.4395,39.31,4.17,-3.79,
36380,1661621472505,-0.7328,0.0358,-0.1796,36.81,-14.19,-3.88,
36381,1661621472510,-0.7435,0.0241,-0.746,35.8,-17.99,-7.53,
36382,1661621472510,-0.745,-0.2112,0.3531,37.22,-1.76,-3.7,
36383,1661621472510,-0.8558,0.1369,-0.0668,35.41,3.33,-7.8,
36384,1661621472510,-0.7811,0.1257,-0.7158,36.6,-9.2,-2.69,
36385,1661621472510,-0.8417,-0.2918,-0.3105,31.41,-8.94,-4.71,
36386,1661621472510,-0.8641,0.2228,0.5845,28.11,-16.22,-12.27,
36387,1661621472510,-0.83,-0.2322,-0.6244,30.52,-24.43,-10.09,
36388,1661621472510,-0.9667,-0.2713,-0.1039,25.5,-3.95,-5.16,
36389,1661621472510,-0.9794,-0.0682,0.5421,18.12,-8.18,-8.08,
36390,1661621472514,-1.0116,-0.3245,-0.2802,21.02,-13.0,-7.71,
36391,1661621472514,-1.0263,-0.265,-0.1572,22.01,-11.99,-8.54,
36392,1661621472514,-1.1351,-0.6898,0.4478,17.32,-5.65,-4.43,
36393,1661621472514,-0.9994,-0.3006,0.148,10.81,-3.02,-6.89,
36394,1661621472514,-1.0487,-0.3724,-0.3232,10.32,-11.83,-4.06,
36395,1661621472514,-0.9823,-0.9652,-0.2553,4.63,-9.11,-10.18,
36396,1661621472514,-1.08,-0.6448,0.3629,-0.99,-14.79,-12.82,
36397,1661621472514,-1.1176,-0.7742,-0.1176,0.75,-15.29,-8.9,
36398,1661621472514,-1.0194,-0.9661,-0.2035,-1.26,-10.13,-6.98,
36399,1661621472514,-1.2347,-0.7664,0.5128,-9.96,-0.92,-9.27,
36400,1661621472514,-1.0975,-0.9407,0.2877,-15.48,-12.16,-4.98,
36401,1661621472514,-1.2347,-0.5765,0.2833,-13.06,-8.44,-2.97,
36402,1661621472514,-1.1888,-0.7801,0.5001,-13.27,-1.16,3.05,
36403,1661621472514,-1.3373,-0.388,0.5201,-17.16,12.45,0.59,
36404,1661621472514,-1.1654,-0.3812,0.3331,-16.06,5.69,5.69,
36405,1661621472514,-1.182,-0.5325,0.2217,-16.06,-0.15,6.69,
36406,1661621472514,-1.1644,-0.0594,0.4,-16.66,-2.69,3.69,
36407,1661621472514,-1.1796,0.0812,0.4195,-15.68,11.61,5.96,
36408,1661621472514,-1.1635,-0.0052,0.0416,-18.37,1.88,6.6,
36409,1661621472523,-1.3163,0.3698,0.2672,-15.68,-0.32,8.52,
36410,1661621472523,-1.2484,0.195,0.6597,-12.77,1.21,7.7,
36411,1661621472523,-1.1918,0.3679,0.4996,-9.77,-0.15,4.51,
36412,1661621472523,-1.1049,0.4806,0.2662,-8.57,-2.78,-1.24,
36413,1661621472523,-1.2289,0.3244,0.4888,-8.58,-2.43,2.68,
36414,1661621472523,-1.0468,0.6848,0.4278,-5.56,5.43,2.95,
36415,1661621472523,-1.0087,0.4538,0.2613,-0.67,13.72,6.97,
36416,1661621472523,-1.0326,0.4299,0.1207,4.31,19.81,1.86,
36417,1661621472523,-1.1,0.7604,0.0406,1.32,11.69,4.79,
36418,1661621472523,-0.9559,0.5475,0.2261,2.22,9.58,9.79,
36419,1661621472523,-1.0116,0.7931,0.0904,3.91,5.26,4.51,
36420,1661621472523,-1.0004,0.8088,-0.2143,9.83,-4.81,5.32,
36421,1661621472523,-0.8124,0.5026,-0.0473,14.73,-1.42,2.31,
36422,1661621472523,-1.0433,1.0012,0.7759,15.22,6.36,-2.87,
36423,1661621472523,-0.7953,0.7795,0.0465,18.61,-1.25,0.68,
36424,1661621472523,-0.8973,0.6589,-0.1948,22.33,-0.4,1.76,
36425,1661621472523,-0.9271,0.9777,0.5128,24.31,14.74,2.59,
36426,1661621472523,-0.9169,0.8146,0.5025,29.01,13.81,0.31,
36427,1661621472523,-0.8451,0.9265,-0.1171,30.62,13.98,-1.7,
36428,1661621472523,-0.7611,0.8259,-0.0087,29.72,6.7,-0.78,
36429,1661621472523,-0.8305,0.7609,0.1158,31.9,5.86,-2.87,
36430,1661621472523,-0.7743,0.9938,-0.0922,38.5,-3.45,-1.52,
36431,1661621472523,-0.7299,0.6696,-0.4062,39.8,0.37,-2.25,
36432,1661621472523,-0.7836,0.7888,0.0533,34.81,8.82,-6.8,
36433,1661621472523,-0.7684,0.7546,-0.27,33.41,-3.95,0.41,
36434,1661621472523,-0.6986,0.5431,-0.2968,38.52,2.56,-5.53,
36435,1661621472523,-0.684,0.5754,0.0167,45.61,-1.16,-6.43,
36436,1661621472523,-0.7836,0.3024,-0.3261,47.71,-8.61,-8.81,
36437,1661621472523,-0.8471,0.1501,-0.0209,47.11,-4.72,-9.27,
36438,1661621472523,-0.8558,0.133,0.0113,42.01,-0.82,-6.98,
36439,1661621472523,-0.7401,-0.3016,-0.6074,41.3,0.11,-3.42,
36440,1661621472523,-0.8402,-0.1527,-0.0854,34.32,-2.18,-6.61,
36441,1661621472523,-0.8939,-0.2254,0.1607,37.42,-7.93,-5.9,
36442,1661621472523,-0.7484,-0.6678,-0.4252,37.21,-24.0,-2.87,
36443,1661621472523,-0.9286,-0.4818,-0.4145,31.42,-18.68,-8.26,
36444,1661621472539,-1.0355,-0.5662,0.5054,25.02,-9.28,-6.8,
36445,1661621472539,-0.9638,-0.5516,-0.0141,21.0,-16.3,-6.26,
36446,1661621472539,-0.9159,-0.6038,-0.3608,20.8,-22.22,-4.43,
36447,1661621472539,-1.1469,-0.5667,0.3931,17.43,-14.02,-4.71,
36448,1661621472539,-0.9672,-0.3148,0.3048,15.81,-13.6,-7.53,
36449,1661621472539,-1.0453,-0.6082,-0.2001,10.61,-12.57,-0.78,
36450,1661621472539,-1.0126,-0.2405,0.0465,11.44,-7.25,-3.97,
36451,1661621472539,-0.9979,-0.5198,0.2276,7.42,-12.33,0.31,
36452,1661621472539,-1.1688,-0.6107,0.3062,-1.49,-6.91,-0.6,
36453,1661621472539,-1.0638,-0.2103,-0.2021,-2.98,-18.59,-1.24,
36454,1661621472539,-0.9789,-0.6204,-0.2206,-1.57,-4.88,-4.16,
36455,1661621472539,-1.12,-0.324,0.7271,-4.68,0.37,-6.35,
36456,1661621472539,-1.0868,-0.4232,-0.0541,-6.39,-6.49,-6.08,
36457,1661621472539,-1.1737,-0.6912,-0.059,-7.47,-5.31,-6.52,
36458,1661621472539,-1.2763,-0.369,0.7173,-11.47,6.03,-4.71,
36459,1661621472539,-1.1918,-0.6946,0.0655,-12.37,5.6,0.5,
36460,1661621472539,-1.1928,-0.3895,0.0059,-11.87,9.25,-1.7,
36461,1661621472539,-1.2318,-0.3206,0.3643,-13.48,8.73,0.41,
36462,1661621472539,-1.1669,-0.6932,0.4586,-16.08,-2.09,4.33,
36463,1661621472539,-1.2601,-0.2244,0.2042,-19.27,-7.17,1.23,
36464,1661621472539,-1.1679,-0.3445,0.4263,-16.58,1.88,7.97,
36465,1661621472549,-1.3539,-0.2425,0.3472,-16.85,-12.07,7.79,
36466,1661621472549,-1.2767,0.1271,0.627,-18.46,-1.85,11.9,
36467,1661621472549,-1.2211,-0.0228,0.5465,-12.57,3.14,9.42,
36468,1661621472549,-1.3002,0.216,0.3077,-15.05,6.36,6.97,
36469,1661621472549,-1.1156,0.2985,0.3453,-13.76,-6.58,12.63,
36470,1661621472549,-1.2772,0.3176,0.5684,-10.66,1.46,9.42,
36471,1661621472549,-1.0629,0.7702,0.3028,-3.56,1.54,10.52,
36472,1661621472549,-1.1019,0.4304,-0.0287,-1.96,-0.4,4.69,
36473,1661621472549,-1.018,0.5827,0.1827,-1.28,7.63,5.24,
36474,1661621472549,-1.0033,0.9958,0.4527,-3.17,3.57,4.14,
36475,1661621472549,-1.0599,0.6721,0.0172,1.43,2.4,3.5,
36476,1661621472549,-0.9857,1.0031,0.1368,4.13,0.27,2.86,
36477,1661621472549,-0.9467,1.0392,0.4669,6.74,12.12,-1.24,
36478,1661621472555,-1.0136,0.9421,0.4566,10.52,9.49,-2.78,
36479,1661621472555,-0.9359,1.0173,-0.1821,18.73,5.77,1.86,
36480,1661621472555,-0.8871,0.8122,0.3028,24.53,16.27,3.32,
36481,1661621472555,-0.871,0.9533,0.4776,23.92,22.6,-0.42,
36482,1661621472555,-0.8744,0.9758,-0.2236,25.02,16.01,-1.42,
36483,1661621472555,-0.7709,0.6857,-0.2358,30.81,9.41,-0.78,
36484,1661621472555,-0.9056,0.8332,0.2706,35.3,1.54,-1.15,
36485,1661621472555,-0.952,0.5871,-0.2494,35.89,-12.41,-2.87,
36486,1661621472555,-0.8295,0.5153,-0.1015,37.8,-8.27,-4.06,
36487,1661621472555,-0.9135,0.612,0.3384,41.82,5.1,1.67,
36488,1661621472555,-0.7206,0.5104,0.3687,41.4,5.26,-1.97,
36489,1661621472555,-0.8715,0.4352,-0.2665,38.7,1.46,0.77,
36490,1661621472555,-0.7333,0.3205,-0.0317,37.8,0.11,-1.33,
36491,1661621472555,-0.8763,0.4528,0.4444,37.12,1.54,-3.42,
36492,1661621472555,-0.7587,0.6364,0.2574,41.82,3.4,-5.62,
36493,1661621472555,-0.6381,0.1974,-0.9501,43.42,-10.8,0.59,
36494,1661621472555,-0.7494,0.1974,-0.3925,42.01,5.26,-1.88,
36495,1661621472555,-0.8612,0.5002,0.109,37.71,-1.08,-6.08,
36496,1661621472555,-0.7699,0.0651,-0.8442,37.62,-14.53,-3.61,
36497,1661621472555,-0.7479,0.1618,-0.5956,38.21,-23.41,-11.72,
36498,1661621472555,-0.8334,0.0554,-0.016,37.1,-13.17,-7.8,
36499,1661621472555,-0.9838,0.03,0.4683,32.4,-7.42,-10.0,
36500,1661621472555,-0.8954,-0.1116,-0.3461,30.22,-19.18,-9.18,
36501,1661621472555,-0.9559,-0.5296,0.0894,32.42,-3.11,-11.54,
36502,1661621472555,-1.0355,-0.1732,0.7818,30.13,4.67,-12.18,
36503,1661621472555,-0.9384,-0.6072,-0.1772,24.51,-1.5,-16.65,
36504,1661621472555,-0.9027,-0.7498,-0.3764,19.52,-10.13,-9.18,
36505,1661621472555,-1.0614,-0.5057,0.2886,18.81,-2.78,-8.9,
36506,1661621472555,-0.8876,-0.8621,-0.248,16.12,-12.83,-7.25,
36507,1661621472555,-1.0082,-0.8319,-0.5776,8.12,-21.38,-10.63,
36508,1661621472555,-1.0521,-1.0062,0.0704,5.12,-26.54,-2.51,
36509,1661621472555,-1.1864,-0.7132,0.3604,5.01,-22.22,0.5,
36510,1661621472555,-1.057,-0.6048,0.2779,1.91,-7.77,-1.88,
36511,1661621472555,-0.9325,-1.0169,-0.0458,-3.88,-9.96,1.86,
36512,1661621472555,-1.1771,-0.66,0.2349,-12.77,-10.47,-1.42,
36513,1661621472571,-1.1791,-0.7034,0.7418,-8.39,-4.55,-1.79,
36514,1661621472571,-1.3197,-0.6492,0.3873,-9.38,3.07,-3.24,
36515,1661621472571,-1.2113,-0.2484,-0.0956,-12.08,-2.09,-0.23,
36516,1661621472571,-1.2382,-0.5726,0.4449,-16.85,4.26,0.31,
36517,1661621472571,-1.1893,-0.3421,0.7735,-18.58,7.72,-1.24,
36518,1661621472571,-1.1312,-0.0921,0.0518,-16.66,-14.44,-1.61,
36519,1661621472571,-1.2015,-0.2728,-0.2382,-19.68,-4.88,-0.14,
36520,1661621472571,-1.2904,0.2223,0.9351,-19.56,7.13,1.86,
36521,1661621472571,-1.2489,-0.1087,0.4625,-17.05,4.42,6.14,
36522,1661621472571,-1.0751,0.1618,-0.0927,-12.06,5.86,-2.25,
36523,1661621472571,-1.1708,0.2414,0.8511,-13.38,12.62,1.4,
36524,1661621472571,-1.1234,0.1345,0.5694,-14.57,10.51,1.23,
36525,1661621472571,-1.1049,0.2902,-0.0019,-13.28,-6.24,0.04,
36526,1661621472571,-1.0878,0.2839,-0.0307,-6.78,7.39,3.32,
36527,1661621472571,-1.1312,0.3024,0.7637,-9.16,9.92,6.14,
36528,1661621472571,-1.1044,0.57,0.1817,-9.27,2.4,8.62,
36529,1661621472571,-0.9838,0.3537,-0.2109,-3.47,-4.81,6.51,
36530,1661621472571,-1.0975,0.3815,0.2501,-2.16,-7.51,4.97,
36531,1661621472571,-1.1229,0.7243,0.8902,-2.66,-2.59,6.14,
36532,1661621472571,-1.078,0.6188,0.1363,4.83,-3.11,11.53,
36533,1661621472571,-0.9213,0.8854,0.2032,7.73,9.58,8.16,
36534,1661621472571,-0.9222,0.841,0.5108,11.11,14.57,3.78,
36535,1661621472571,-1.0966,0.8766,0.5777,8.22,19.3,6.69,
36536,1661621472582,-0.8392,1.091,-0.1982,18.03,7.8,0.22,
36537,1661621472582,-0.9535,0.7971,-0.0751,25.21,11.78,1.86,
36538,1661621472582,-0.8739,0.945,0.1895,26.01,11.78,-3.24,
36539,1661621472582,-0.849,1.0871,-0.1337,21.41,-2.78,-4.52,
36540,1661621472582,-0.8597,0.8566,-0.1371,25.52,4.0,-1.61,
36541,1661621472582,-0.893,1.029,-0.0248,35.7,-4.29,-6.61,
36542,1661621472582,-0.8817,0.7765,0.0904,37.82,0.53,-4.61,
36543,1661621472582,-0.8656,1.0353,0.4649,35.32,10.93,-5.44,
36544,1661621472582,-0.8676,0.9499,0.2071,36.41,4.5,-6.26,
36545,1661621472582,-0.8329,0.4831,-0.1181,38.72,6.87,-4.98,
36546,1661621472582,-0.8441,0.759,0.3487,44.21,12.45,-9.54,
36547,1661621472582,-0.8148,0.4377,-0.2587,46.3,6.36,-8.26,
36548,1661621472582,-0.7211,0.2663,-0.6054,49.22,1.71,-8.26,
36549,1661621472582,-0.8895,0.2487,0.0035,48.0,7.13,-4.06,
36550,1661621472582,-0.8431,0.0261,-0.1533,43.08,-3.45,-3.97,
36551,1661621472582,-0.745,-0.1136,-0.7192,42.12,-16.39,-6.43,
36552,1661621472582,-0.8002,-0.1629,-0.2548,41.31,-20.45,-6.52,
36553,1661621472582,-0.8666,-0.3611,0.0172,40.52,-14.79,-0.69,
36554,1661621472582,-0.7953,-0.2567,-0.2114,32.6,-10.54,-5.35,
36555,1661621472582,-0.8373,-0.4232,0.1465,32.0,-8.44,-6.7,
36556,1661621472582,-0.9305,-0.0916,0.2266,31.82,-9.7,-10.18,
36557,1661621472582,-0.9047,-0.4612,-0.06,30.52,-8.18,-4.43,
36558,1661621472582,-1.0277,-0.2943,0.2813,23.31,2.14,-8.54,
36559,1661621472582,-0.8954,-0.035,0.1065,23.32,-11.57,-7.44,
36560,1661621472582,-0.8124,-0.3294,-0.416,21.52,-15.37,-8.9,
36561,1661621472582,-0.9242,-0.1732,0.1417,21.81,-10.21,-7.89,
36562,1661621472582,-0.9149,-0.3328,-0.1586,17.0,-20.11,-6.08,
36563,1661621472582,-1.0883,-0.4798,-0.0781,10.52,-18.51,-3.97,
36564,1661621472582,-1.1088,-0.2493,0.2657,9.92,-18.84,-3.42,
36565,1661621472582,-1.1117,-0.741,0.0425,8.43,-5.65,-4.34,
36566,1661621472582,-1.0682,-0.5589,0.0826,0.72,-2.09,-9.18,
36567,1661621472582,-1.0897,-0.7791,0.2071,0.33,-1.92,-3.24,
36568,1661621472582,-1.0819,-0.8895,0.2764,-4.97,-6.24,-5.9,
36569,1661621472582,-1.1434,-0.5628,0.1119,-4.78,-5.65,-4.34,
36570,1661621472582,-1.1166,-0.911,-0.0727,-7.47,-0.73,-3.15,
36571,1661621472597,-1.223,-0.804,0.2681,-14.15,0.61,-1.33,
36572,1661621472597,-1.2743,-0.5887,0.2105,-16.38,-7.77,-3.24,
36573,1661621472597,-1.1317,-0.8875,-0.1161,-14.26,-25.01,-0.05,
36574,1661621472597,-1.2894,-0.3694,0.9171,-13.68,-1.08,3.14,
36575,1661621472597,-1.14,-0.5569,0.5982,-18.56,7.55,8.8,
36576,1661621472597,-1.1547,-0.1888,0.0338,-22.97,-2.35,4.88,
36577,1661621472597,-1.0839,-0.054,0.4459,-18.58,1.46,7.52,
36578,1661621472597,-1.1376,-0.262,0.8946,-12.77,8.06,11.44,
36579,1661621472597,-1.0741,0.3766,0.4844,-15.36,6.12,4.14,
36580,1661621472597,-1.099,0.0451,-0.0893,-14.76,-5.48,5.24,
36581,1661621472597,-1.14,0.3386,0.3443,-10.96,8.06,0.5,
36582,1661621472597,-1.0614,0.6071,0.4761,-10.46,8.65,4.69,
36583,1661621472597,-1.0453,0.4001,0.1016,-7.78,1.54,4.24,
36584,1661621472597,-0.9882,0.6188,0.0474,-8.28,-2.35,7.33,
36585,1661621472597,-1.017,0.7131,0.67,-11.16,3.4,12.63,
36586,1661621472597,-1.0399,0.7023,0.5421,-7.67,5.36,7.7,
36587,1661621472597,-0.955,0.8556,0.0445,1.14,0.27,4.6,
36588,1661621472597,-0.9852,0.7126,0.1671,3.91,15.17,5.32,
36589,1661621472597,-1.0067,0.8688,0.73,11.53,23.7,1.49,
36590,1661621472597,-0.9227,0.9543,-0.1982,12.92,9.08,3.14,
36591,1661621472597,-0.8939,0.6843,-0.4565,13.92,6.62,10.16,
36592,1661621472597,-0.9257,0.8781,0.3096,13.92,12.37,3.05,
36593,1661621472597,-1.0389,1.0187,0.2354,15.52,5.43,3.05,
36594,1661621472597,-0.7606,0.5402,-0.6303,20.1,-8.35,6.78,
36595,1661621472597,-0.9071,0.9274,0.4161,27.81,-2.95,1.95,
36596,1661621472597,-0.9652,0.9128,0.8008,29.23,-0.4,9.52,
36597,1661621472597,-0.9799,0.6735,-0.0204,32.51,-5.74,6.97,
36598,1661621472597,-0.8485,0.7111,-0.082,31.52,6.45,8.16,
36599,1661621472597,-0.9594,0.6984,0.9327,31.81,13.89,4.6,
36600,1661621472597,-1.0092,0.8454,0.8067,34.2,7.72,1.49,
36601,1661621472597,-0.7396,0.7541,-0.519,39.89,-3.88,1.32,
36602,1661621472597,-0.7616,0.5002,-0.0932,40.21,7.46,0.59,
36603,1661621472597,-0.8148,0.9802,0.1412,41.2,1.3,-5.9,
36604,1661621472613,-0.7074,0.529,-0.6782,43.71,-8.1,-3.79,
36605,1661621472613,-0.6981,0.4211,-0.5077,40.79,4.26,-7.16,
36606,1661621472613,-0.7279,0.6071,-0.3329,38.6,-8.1,-2.43,
36607,1661621472613,-0.8095,0.2809,-0.5395,45.6,-11.66,-5.53,
36608,1661621472613,-0.8524,0.4611,0.213,45.02,-4.55,-9.36,
36609,1661621472613,-0.8182,0.0485,-0.1982,42.11,-8.27,-9.08,
36610,1661621472613,-0.8319,-0.0208,-0.2587,38.02,-9.96,-11.18,
36611,1661621472613,-0.8861,-0.074,0.3804,43.22,5.6,-10.18,
36612,1661621472613,-0.8134,-0.5047,-0.1464,43.4,4.17,-5.25,
36613,1661621472613,-0.8524,-0.4295,-0.4648,37.21,-4.38,-12.27,
36614,1661621472613,-1.0028,-0.4129,-0.1376,29.12,-7.84,-5.07,
36615,1661621472613,-0.9437,-0.7122,0.232,29.23,-15.2,-8.17,
36616,1661621472613,-0.9169,-0.5843,-0.4018,27.9,-21.21,-3.42,
36617,1661621472613,-0.9203,-0.8626,-0.332,23.63,-17.58,-5.07,
36618,1661621472613,-1.0858,-0.6922,0.314,15.04,-22.64,-4.98,
36619,1661621472613,-0.9916,-0.7464,0.2242,13.43,-26.96,-6.08,
36620,1661621472613,-1.1054,-0.5916,-0.0912,12.3,-17.49,-1.97,
36621,1661621472613,-1.0551,-0.6658,0.0035,6.72,-12.83,-1.33,
36622,1661621472613,-1.2606,-0.7894,0.7247,1.73,-2.78,1.95,
36623,1661621472613,-1.0521,-0.1688,0.2081,-0.99,-9.54,-5.35,
36624,1661621472613,-0.9525,-0.4207,-0.4575,2.52,-19.94,-2.34,
36625,1661621472613,-1.0482,-0.723,-0.2031,-1.26,0.27,-5.71,
36626,1661621472613,-1.1947,-0.2567,0.7725,-10.38,0.78,-5.44,
36627,1661621472613,-1.1244,-0.492,-0.2016,-10.69,-10.8,-8.63,
36628,1661621472613,-1.14,-0.2801,-0.1708,-9.88,-8.94,-6.98,
36629,1661621472613,-1.2069,-0.4144,0.6998,-10.77,-1.5,-2.78,
36630,1661621472613,-1.1766,-0.2752,0.4464,-17.47,1.54,-0.88,
36631,1661621472613,-1.1239,-0.3392,-0.0507,-14.96,2.23,-0.88,
36632,1661621472613,-1.2518,-0.4764,0.6822,-12.06,12.62,3.14,
36633,1661621472613,-1.2836,-0.0169,0.5899,-16.85,12.54,-1.97,
36634,1661621472613,-1.1981,-0.1131,0.1632,-16.46,-0.49,6.05,
36635,1661621472613,-1.0321,-0.4153,0.1065,-12.78,-0.56,10.16,
36636,1661621472613,-1.1849,0.0427,0.5801,-15.88,10.76,10.43,
36637,1661621472613,-1.0277,-0.0423,0.334,-19.75,-1.59,10.98,
36638,1661621472629,-1.2084,0.0573,0.1505,-15.28,-13.43,9.88,
36639,1661621472629,-1.1942,0.2565,0.4019,-7.56,-6.24,8.8,
36640,1661621472629,-1.2025,0.3224,0.2921,-4.88,-4.04,9.7,
36641,1661621472629,-1.0546,0.6013,0.4493,-8.66,13.21,9.24,
36642,1661621472629,-0.9755,0.488,0.5347,-7.96,9.08,7.7,
36643,1661621472629,-1.1249,0.507,0.1812,-1.78,10.25,6.51,
36644,1661621472629,-0.9564,0.9411,0.504,1.41,13.81,4.33,
36645,1661621472629,-0.9945,0.8503,0.4512,3.01,10.51,4.33,
36646,1661621472629,-0.9364,0.8068,-0.0204,8.63,4.5,4.05,
36647,1661621472629,-0.9115,0.9221,-0.0595,10.23,0.18,6.14,
36648,1661621472629,-0.995,0.9333,0.4273,9.12,8.32,2.77,
36649,1661621472629,-0.8583,1.0988,0.1529,12.63,-6.91,8.34,
36650,1661621472629,-0.8002,1.0021,-0.267,16.23,-1.92,1.32,
36651,1661621472629,-0.8827,1.1071,0.5362,23.43,14.07,2.59,
36652,1661621472629,-0.8734,1.05,0.0049,28.01,6.87,3.41,
36653,1661621472629,-0.7943,0.8967,-0.1606,32.81,15.84,2.59,
36654,1661621472629,-0.8397,0.9123,0.3702,33.22,18.3,1.32,
36655,1661621472629,-0.8817,0.8508,0.1348,31.12,7.96,-3.97,
36656,1661621472629,-0.8378,0.7219,-0.1826,36.52,-2.35,-7.89,
36657,1661621472629,-0.8983,0.7507,0.1783,41.4,0.7,-8.63,
36658,1661621472629,-0.8348,0.5988,0.1075,48.91,-2.95,-4.61,
36659,1661621472629,-0.6815,0.362,-0.3456,45.42,3.4,-5.9,
36660,1661621472629,-0.8217,0.425,-0.037,45.31,3.57,-1.61,
36661,1661621472629,-0.7391,0.1115,-0.1943,43.02,-7.77,-0.69,
36662,1661621472629,-0.7797,0.2233,-0.0512,44.61,-11.57,-2.69,
36663,1661621472629,-0.7723,0.0812,0.0167,43.3,-12.16,-2.78,
36664,1661621472629,-0.8597,0.0607,-0.477,42.72,-10.3,-4.43,
36665,1661621472629,-0.7792,0.0764,-0.1757,40.21,0.44,-4.34,
36666,1661621472629,-0.7953,0.0261,0.149,38.7,2.98,-3.97,
36667,1661621472629,-0.8104,0.1882,-0.0058,37.22,-4.46,-5.53,
36668,1661621472629,-0.7816,-0.0887,-0.7719,40.41,-21.71,-3.79,
36669,1661621472629,-0.9457,-0.0945,0.209,31.81,-6.65,-10.72,
36670,1661621472629,-0.994,0.0666,0.2017,30.11,-13.76,-11.08,
36671,1661621472629,-0.9379,-0.3748,-0.5737,32.2,-17.82,-11.91,
36672,1661621472644,-0.9359,-0.1077,0.2642,30.81,-8.35,-10.44,
