srNo,timestamp,ax,ay,az,gx,gy,gz,temp
17392,1661622391046,-1.1793,0.0223,0.967,-3.84,15.14,-0.37,
17393,1661622391046,-1.3136,0.2283,0.8039,-7.62,11.92,-1.1,
17394,1661622391046,-1.0563,0.306,-0.0291,-5.33,-1.87,-2.38,
17395,1661622391046,-1.1505,0.2508,0.5729,-2.22,10.23,-1.65,
17396,1661622391046,-1.1061,0.8397,0.5685,2.18,9.22,-3.47,
17397,1661622391046,-0.9313,0.4383,-0.451,7.67,0.08,-1.56,
17398,1661622391046,-0.924,0.3475,-0.2796,6.77,4.81,-5.48,
17399,1661622391046,-1.0231,0.911,0.527,6.26,1.69,-5.94,
17400,1661622391046,-0.9367,0.6956,-0.1185,7.18,-2.63,-3.01,
17401,1661622391046,-0.8234,0.7948,-0.3958,10.48,1.01,-6.03,
17402,1661622391046,-0.8561,0.826,0.446,15.68,10.49,-6.03,
17403,1661622391046,-1.025,0.7083,0.3869,16.78,4.65,-10.58,
17404,1661622391046,-0.9909,0.7786,-0.3284,24.07,-1.87,-6.12,
17405,1661622391046,-0.963,0.5516,0.1076,30.86,13.36,-6.84,
17406,1661622391046,-1.0787,0.616,0.5397,28.07,16.99,-8.94,
17407,1661622391046,-1.049,0.7303,-0.1732,29.76,6.43,-8.67,
17408,1661622391046,-0.8473,0.345,-0.0355,32.17,10.4,-5.3,
17409,1661622391046,-0.9171,0.4066,0.2243,33.35,10.66,-6.47,
17410,1661622391061,-1.0807,0.5745,0.1184,40.44,-2.54,-7.21,
17411,1661622391061,-0.8908,0.3592,-0.0716,43.36,-5.33,-1.01,
17412,1661622391061,-0.9464,0.4935,0.1857,47.45,2.62,0.45,
17413,1661622391061,-0.9132,0.4764,0.2072,49.95,1.85,3.83,
17414,1661622391061,-1.0495,0.535,0.1032,48.96,1.26,-2.02,
17415,1661622391061,-0.8175,0.493,0.0187,48.96,2.02,-2.02,
17416,1661622391061,-0.817,0.3607,-0.035,49.55,-3.98,-1.38,
17417,1661622391061,-0.8087,0.5594,-0.2659,50.35,-9.13,-2.02,
17418,1661622391061,-0.694,0.3035,-0.1141,59.35,-6.17,1.54,
17419,1661622391061,-0.7941,0.2386,0.0202,59.04,13.36,-1.83,
17420,1661622391061,-0.7199,0.4603,-0.5364,52.16,-7.53,-2.83,
17421,1661622391061,-0.7619,0.1663,-0.8148,49.34,-20.39,-4.2,
17422,1661622391061,-0.8893,0.2806,0.2878,54.06,-10.23,-4.57,
17423,1661622391061,-0.8336,0.0306,-0.2586,58.36,-15.39,-5.66,
17424,1661622391061,-0.9015,-0.1042,-0.6966,56.45,-20.3,-6.21,
17425,1661622391061,-0.9904,-0.0602,0.5886,49.16,-5.17,-5.3,
17426,1661622391061,-1.027,-0.4552,0.3088,50.04,-5.84,-1.93,
17427,1661622391061,-0.9518,-0.3371,-0.4158,48.94,-6.17,-8.21,
17428,1661622391061,-0.9982,-0.3991,-0.0413,39.45,-4.24,-6.84,
17429,1661622391061,-1.0343,-0.6491,0.76,33.94,-9.3,-9.77,
17430,1661622391061,-1.0543,-0.4587,0.0173,34.86,-18.36,-8.03,
17431,1661622391061,-0.965,-0.735,-0.3646,36.35,-15.39,-2.83,
17432,1661622391061,-1.0934,-0.717,0.3078,27.47,-7.7,-3.28,
17433,1661622391061,-1.0934,-0.5588,0.2922,24.25,-16.41,-3.38,
17434,1661622391061,-0.9913,-0.5832,-0.1912,22.85,-27.66,-4.75,
17435,1661622391061,-0.9962,-0.4616,0.114,24.07,-18.61,-1.19,
17436,1661622391061,-1.1256,-0.5314,0.6501,15.97,-8.13,1.19,
17437,1661622391061,-1.0304,-0.1799,0.1779,11.67,-5.93,-0.0,
17438,1661622391061,-0.8795,-0.3244,-0.2171,11.27,-13.12,2.45,
17439,1661622391061,-1.1163,-0.592,0.1462,8.87,-6.6,1.63,
17440,1661622391075,-1.0875,-0.1364,0.4577,5.06,-9.06,-5.02,
17441,1661622391075,-0.9757,-0.3854,-0.0999,3.58,-1.18,-0.74,
17442,1661622391075,-1.0734,-0.1789,0.0969,-0.92,5.5,-5.21,
17443,1661622391075,-1.1715,-0.2062,0.1677,0.95,-4.57,-6.93,
17444,1661622391075,-1.2116,-0.2629,0.3063,-3.13,-2.88,-6.75,
17445,1661622391075,-1.193,0.0897,0.6994,-7.42,-3.14,-6.03,
17446,1661622391075,-1.09,-0.1574,0.1643,-8.73,-2.63,-7.85,
17447,1661622391075,-1.1481,-0.009,0.3176,-6.83,0.51,-8.21,
17448,1661622391075,-1.152,0.1004,0.8322,-1.12,12.52,-5.3,
17449,1661622391075,-1.0978,-0.1486,0.3391,1.46,17.42,-1.38,
17450,1661622391075,-1.0856,0.0286,0.0793,-4.13,11.83,-7.48,
17451,1661622391075,-1.1046,0.3446,0.3019,-8.12,9.13,-6.66,
17452,1661622391075,-1.0338,0.1258,0.3703,-3.53,-0.25,-2.73,
17453,1661622391075,-1.0856,0.472,-0.0359,3.06,-0.08,-4.02,
17454,1661622391075,-0.9284,0.3045,-0.0867,6.97,-4.57,1.81,
17455,1661622391075,-0.942,0.388,0.1833,5.26,7.94,-6.3,
17456,1661622391075,-0.9489,0.6707,0.3659,7.78,8.03,-0.37,
17457,1661622391075,-0.9,0.4193,-0.1282,10.37,5.91,3.09,
17458,1661622391075,-0.8629,0.8421,0.1804,11.38,5.41,-6.47,
17459,1661622391075,-0.7975,0.6483,0.2316,16.56,4.14,-3.1,
17460,1661622391085,-0.9816,0.5975,0.1345,20.17,-1.27,-3.19,
17461,1661622391085,-0.9826,0.8441,-0.0247,21.77,4.22,-4.02,
17462,1661622391085,-1.006,0.6283,0.2102,27.55,9.3,-0.64,
17463,1661622391085,-1.0006,0.8983,0.321,24.97,13.86,-6.84,
17464,1661622391085,-0.881,0.7772,-0.1492,28.66,4.4,-4.2,
17465,1661622391085,-0.8947,0.6463,-0.1561,32.36,7.1,-10.04,
17466,1661622391085,-0.9337,0.9691,0.1633,35.76,2.62,-9.86,
17467,1661622391085,-0.8893,0.7581,0.0373,41.34,0.68,-5.85,
17468,1661622391085,-0.8956,0.6937,-0.1302,43.97,-1.35,-8.21,
17469,1661622391085,-0.9005,0.6951,-0.18,49.84,-3.9,-2.48,
17470,1661622391085,-0.9181,0.4578,0.0339,52.85,5.41,-1.83,
17471,1661622391085,-0.8483,0.5325,0.009,52.96,-1.44,-2.2,
17472,1661622391085,-0.8502,0.41,-0.3314,49.95,-6.86,-3.65,
17473,1661622391085,-0.7511,0.2005,-0.1839,50.76,-14.29,-0.64,
17474,1661622391085,-0.8405,0.4417,0.1018,57.26,-6.34,-1.74,
17475,1661622391085,-0.7326,-0.0978,-0.4266,64.55,-5.67,4.28,
17476,1661622391085,-0.817,-0.0021,-0.18,54.24,-4.66,0.91,
17477,1661622391085,-0.882,0.2362,0.2526,48.24,-7.96,-1.65,
17478,1661622391085,-0.7912,0.014,0.1218,48.26,-15.91,-1.01,
17479,1661622391085,-0.8283,-0.0573,-0.6243,61.55,-15.98,1.1,
17480,1661622391085,-0.8078,-0.1344,0.0251,56.63,2.28,-6.56,
17481,1661622391085,-1.0719,-0.0939,0.3005,50.44,-0.51,-3.92,
17482,1661622391085,-0.924,-0.2809,-0.5428,45.66,-18.44,-6.3,
17483,1661622391085,-1.0485,-0.279,0.1589,53.35,-10.23,-8.21,
17484,1661622391085,-0.9752,-0.0632,0.4182,48.26,-6.01,-7.66,
17485,1661622391085,-1.0822,-0.3244,-0.098,40.55,-14.55,-4.11,
17486,1661622391085,-1.0495,-0.4997,-0.0525,34.57,-7.96,-4.57,
17487,1661622391085,-1.0451,-0.2409,0.4074,35.35,-18.94,-3.28,
17488,1661622391085,-0.9943,-0.3893,0.0075,34.46,-18.36,-3.19,
17489,1661622391085,-0.9787,-0.4142,0.0187,28.05,-7.96,-2.02,
17490,1661622391085,-1.0387,-0.5417,0.2248,23.78,-8.55,-3.83,
17491,1661622391085,-1.1149,-0.3576,0.2399,22.13,-16.67,-1.38,
17492,1661622391085,-1.089,-0.4875,0.0402,23.95,-15.22,-1.93,
17493,1661622391085,-0.9796,-0.7199,-0.0418,17.48,-12.18,-0.64,
17494,1661622391085,-1.1271,-0.361,0.1574,9.58,-16.75,-4.75,
17495,1661622391100,-1.1227,-0.6051,0.0544,10.46,-17.85,1.0,
17496,1661622391100,-1.0089,-0.7184,-0.0169,9.67,-15.74,-1.56,
17497,1661622391100,-1.0953,-0.3195,0.2487,6.17,4.57,1.19,
17498,1661622391100,-1.0363,-0.4919,0.2502,3.37,6.26,1.63,
17499,1661622391100,-1.1911,-0.4074,0.1442,-1.15,3.47,-3.65,
17500,1661622391100,-1.1271,-0.3698,0.4714,-3.03,1.78,3.92,
17501,1661622391100,-1.1354,-0.3175,0.5505,-6.43,-10.4,1.72,
17502,1661622391100,-1.1984,0.0369,0.4709,-0.83,-9.99,1.0,
17503,1661622391100,-1.1515,-0.2424,0.3786,-2.92,-0.01,3.55,
17504,1661622391100,-1.1798,-0.0763,0.5949,-8.54,12.09,1.0,
17505,1661622391100,-1.1476,0.2977,0.5939,-11.63,10.66,-0.0,
17506,1661622391100,-1.1378,-0.0124,0.0412,-4.22,-0.77,3.83,
17507,1661622391100,-0.9816,0.2039,0.0764,-3.12,2.54,-3.74,
17508,1661622391100,-1.0343,0.5194,0.4357,-2.13,6.34,1.72,
17509,1661622391100,-1.1305,0.4119,0.3078,-2.62,4.22,-2.38,
17510,1661622391100,-1.0187,0.6444,-0.0921,-0.92,1.94,-4.75,
17511,1661622391100,-0.9586,0.5306,-0.0135,2.86,9.56,-5.85,
17512,1661622391100,-0.9381,0.6029,0.1486,7.45,10.57,-5.11,
17513,1661622391100,-0.8263,0.8055,-0.1033,13.88,4.65,-8.12,
17514,1661622391100,-0.8463,0.3929,-0.158,17.36,4.31,-1.56,
17515,1661622391100,-1.025,0.7054,0.0764,14.37,7.27,-3.56,
17516,1661622391100,-0.983,0.7796,0.0969,14.47,4.4,-6.4,
17517,1661622391100,-0.9113,0.3533,0.0256,16.26,0.16,-3.83,
17518,1661622391100,-1.0543,0.6658,0.093,20.96,-0.25,-0.09,
17519,1661622391100,-0.962,0.3543,0.0935,27.46,-1.95,1.1,
17520,1661622391100,-1.1183,0.6375,0.614,26.57,9.73,1.81,
17521,1661622391100,-1.1041,0.7992,0.614,27.93,10.4,-0.92,
17522,1661622391100,-0.9166,0.4422,-0.0345,31.15,7.1,-0.37,
17523,1661622391100,-0.9152,0.7108,0.1252,34.36,9.64,-1.01,
17524,1661622391100,-0.901,0.5736,0.3742,37.55,6.67,0.18,
17525,1661622391100,-0.9323,0.4583,0.1667,44.46,1.44,-3.56,
17526,1661622391100,-0.7638,0.784,-0.5384,48.94,-3.64,-0.37,
17527,1661622391100,-0.8043,0.6409,-0.1605,48.74,2.54,-0.55,
17528,1661622391100,-0.8742,0.6707,0.2316,45.56,2.88,-3.19,
17529,1661622391100,-0.7697,0.5164,-0.7459,46.85,-18.61,-0.74,
17530,1661622391116,-0.7692,0.5736,-0.1185,51.84,-12.43,-4.84,
17531,1661622391116,-0.8224,0.6766,0.1418,54.65,-9.65,-6.21,
17532,1661622391116,-0.7824,0.3973,-0.222,55.05,-6.51,-2.92,
17533,1661622391116,-0.7755,0.3724,-0.1199,54.96,6.84,-10.39,
17534,1661622391116,-0.839,0.3397,-0.0452,59.33,-3.98,-6.66,
17535,1661622391116,-0.8742,0.0369,-0.2137,62.25,-9.99,-9.31,
17536,1661622391116,-0.882,0.1043,-0.0384,58.56,-1.27,-8.67,
17537,1661622391116,-0.8678,-0.3044,-0.3714,54.94,-2.63,-7.57,
17538,1661622391116,-0.9074,-0.2746,-0.3094,49.74,-12.35,-3.65,
17539,1661622391116,-1.0778,-0.3078,0.2438,53.55,-7.1,-6.03,
17540,1661622391116,-0.9874,-0.5558,0.112,49.54,-12.43,-4.38,
17541,1661622391116,-0.9533,-0.6452,-0.4671,42.44,-20.9,-8.21,
17542,1661622391116,-1.1046,-0.5617,0.4709,34.36,-10.16,-3.19,
17543,1661622391116,-1.1061,-0.5773,0.5827,36.84,-17.77,-2.83,
17544,1661622391116,-0.9962,-0.5412,-0.2044,35.36,-15.05,-0.83,
17545,1661622391116,-1.07,-0.631,0.4255,29.66,-6.43,-5.85,
17546,1661622391116,-1.0783,-0.3268,0.446,27.76,-13.54,-5.39,
17547,1661622391125,-0.9611,-0.5929,-0.1863,27.75,-19.71,-0.19,
17548,1661622391125,-1.1325,-0.3029,0.3454,20.46,-7.1,-1.01,
17549,1661622391125,-1.0006,-0.3058,-0.0325,18.06,-17.94,-2.83,
17550,1661622391125,-1.111,-0.424,0.0446,15.36,-13.95,-2.02,
17551,1661622391125,-1.0807,-0.1559,0.0485,13.95,-19.88,-6.75,
17552,1661622391125,-0.9933,-0.3937,-0.1619,10.98,-20.04,-3.28,
17553,1661622391125,-1.1037,-0.4216,0.0485,8.17,-7.53,-5.3,
17554,1661622391125,-1.171,-0.1447,0.5056,5.76,0.92,-3.1,
17555,1661622391125,-1.1046,-0.5226,-0.0652,5.67,-2.28,-6.21,
17556,1661622391125,-1.2003,-0.2297,0.1721,0.36,-3.55,-4.38,
17557,1661622391125,-1.2545,-0.3097,0.7927,-4.33,1.85,-5.21,
17558,1661622391125,-1.1495,-0.2966,0.2023,-4.33,-5.67,-4.75,
17559,1661622391125,-1.1749,-0.1706,0.0373,-3.33,5.41,-1.01,
17560,1661622391125,-1.2223,-0.2472,0.4758,-1.52,13.1,-0.64,
17561,1661622391125,-1.2306,-0.0944,0.614,-9.53,14.12,0.09,
17562,1661622391125,-1.0934,0.0448,0.0808,-7.62,-0.18,0.27,
17563,1661622391125,-1.0368,-0.0812,0.2717,-7.83,1.85,-1.56,
17564,1661622391125,-1.1403,0.3949,0.6223,-2.83,3.71,0.09,
17565,1661622391125,-1.1134,0.1976,0.2863,0.86,-9.13,2.82,
17566,1661622391125,-1.194,0.3319,0.1877,1.17,4.4,1.63,
17567,1661622391125,-1.0441,0.6995,0.3547,-2.11,11.59,-2.73,
17568,1661622391125,-1.0831,0.3768,-0.096,4.27,12.93,1.1,
17569,1661622391125,-0.9118,0.5379,0.051,4.66,16.15,0.36,
17570,1661622391125,-0.9181,0.7371,0.2521,8.26,9.97,-5.48,
17571,1661622391125,-0.9406,0.6097,-0.2088,10.48,-0.77,-6.03,
17572,1661622391125,-0.8869,0.9935,-0.178,11.06,-4.74,-8.67,
17573,1661622391125,-0.8698,0.89,0.1198,15.56,2.62,-6.66,
17574,1661622391125,-0.9591,0.6922,0.0754,17.97,2.71,-6.84,
17575,1661622391125,-0.9889,0.8577,-0.2381,23.75,2.11,-9.04,
17576,1661622391125,-1.0812,0.7044,0.4074,26.97,13.45,-7.75,
17577,1661622391125,-1.0045,0.8236,0.1979,28.77,8.46,-12.77,
17578,1661622391125,-0.8898,0.5897,-0.2103,32.46,5.24,-14.15,
17579,1661622391125,-0.942,0.5247,0.0681,33.47,12.18,-14.87,
17580,1661622391125,-0.9708,0.7044,0.2883,36.64,9.04,-12.59,
17581,1661622391125,-0.8678,0.3992,-0.3084,42.46,2.37,-8.85,
17582,1661622391140,-0.818,0.5106,0.0036,44.66,3.97,-8.94,
17583,1661622391140,-0.9567,0.5101,0.0837,47.95,-2.45,-8.94,
17584,1661622391140,-0.9039,0.2406,-0.2938,50.65,-16.41,-4.29,
17585,1661622391140,-0.8917,0.3533,-0.1766,49.65,-14.12,-5.57,
17586,1661622391140,-0.8453,0.408,0.4704,52.45,-5.84,-6.3,
17587,1661622391140,-0.8273,0.2313,-0.1995,55.05,-8.37,-6.93,
17588,1661622391140,-0.8517,0.2948,-0.3636,56.54,-6.26,-7.02,
17589,1661622391140,-0.7955,0.2718,0.5051,50.73,4.4,-5.94,
17590,1661622391140,-0.7409,0.4036,-0.0237,53.06,-6.34,-8.3,
17591,1661622391140,-0.7399,0.0321,-0.7977,59.06,-16.32,-5.94,
17592,1661622391140,-0.8507,-0.0119,-0.4427,58.74,-2.37,-6.12,
17593,1661622391140,-0.8756,0.2816,0.2238,49.14,-5.67,-3.38,
17594,1661622391140,-0.7814,0.0159,-0.4295,50.15,-13.95,-2.55,
17595,1661622391140,-0.8053,-0.1188,-0.5643,52.16,-16.32,-3.92,
17596,1661622391140,-0.9528,-0.1164,0.2487,51.54,-6.43,-6.3,
17597,1661622391140,-1.1583,-0.2101,0.2624,47.05,-13.36,-7.02,
17598,1661622391140,-1.0563,-0.361,-0.4373,45.56,-22.84,-4.57,
17599,1661622391140,-1.0856,-0.5378,0.3249,43.25,-12.02,0.27,
17600,1661622391140,-1.1603,-0.3727,0.6804,36.06,-1.52,-2.2,
17601,1661622391140,-1.1354,-0.4504,0.2111,35.07,-6.6,-0.28,
17602,1661622391140,-0.9987,-0.839,-0.306,29.75,-18.11,-1.47,
17603,1661622391140,-1.1378,-0.5627,0.3737,27.03,-17.08,-5.11,
17604,1661622391140,-1.1085,-0.5793,0.3854,24.38,-16.41,-1.93,
17605,1661622391140,-1.0104,-0.6598,-0.2664,19.77,-15.98,-2.73,
17606,1661622391140,-1.0768,-0.4997,0.0549,15.47,-18.94,-5.85,
17607,1661622391140,-1.193,-0.5641,0.4968,13.38,-19.63,-3.92,
17608,1661622391140,-1.0704,-0.3464,0.2834,10.57,-14.81,-6.12,
17609,1661622391140,-0.8209,-0.5641,-0.0521,7.45,-7.53,-3.28,
17610,1661622391140,-1.0861,-0.2643,0.238,6.57,3.29,-4.66,
17611,1661622391140,-1.0675,-0.2272,0.2536,6.28,-3.64,-6.03,
17612,1661622391140,-1.1354,-0.4172,0.2629,1.69,2.28,-4.84,
17613,1661622391140,-1.0534,-0.0485,0.277,-1.33,-5.84,-5.66,
17614,1661622391156,-1.1759,-0.2795,-0.0369,-4.81,-4.48,-9.22,
17615,1661622391156,-1.1603,-0.0949,0.6232,-4.83,6.34,-8.85,
17616,1661622391156,-1.2208,-0.0075,0.59,-4.81,3.29,-8.49,
17617,1661622391156,-1.1315,-0.0783,0.2663,-6.63,-1.61,-8.03,
17618,1661622391156,-1.0968,0.0711,0.1813,-9.71,-1.02,-7.02,
17619,1661622391156,-1.1593,0.118,0.8449,-6.93,13.53,-7.02,
17620,1661622391156,-1.1954,0.2347,0.6061,-3.71,9.8,-3.28,
17621,1661622391156,-1.0792,0.2679,-0.1097,-1.64,3.12,-2.55,
17622,1661622391156,-1.0856,0.2689,0.5593,-2.33,14.79,-2.92,
17623,1661622391156,-1.0382,0.5096,0.6389,0.37,17.92,-2.38,
17624,1661622391156,-0.984,0.4989,-0.3465,2.59,6.17,-7.39,
17625,1661622391156,-0.8204,0.3441,-0.3069,2.79,0.92,-2.64,
17626,1661622391156,-1.0578,0.7557,0.4733,6.08,7.44,-2.55,
17627,1661622391156,-0.9674,0.6126,0.1061,11.47,-8.63,-2.38,
17628,1661622391156,-0.8092,0.3231,-0.6004,16.37,-9.39,-6.3,
17629,1661622391156,-0.962,0.8133,0.5461,16.26,11.66,-0.09,
17630,1661622391156,-0.839,0.5941,0.26,19.55,4.74,-8.49,
17631,1661622391156,-0.8566,0.6434,-0.3201,20.87,-0.59,-4.11,
17632,1661622391156,-0.9977,0.6092,0.7009,23.17,9.56,-9.13,
17633,1661622391156,-1.1408,0.6297,0.8488,27.05,6.93,-5.02,
17634,1661622391156,-1.0026,0.7772,-0.1185,29.56,0.68,-7.11,
17635,1661622391156,-0.8239,0.6746,0.1086,30.86,17.42,-6.84,
17636,1661622391156,-0.9293,0.8187,0.3991,30.56,19.37,-10.13,
17637,1661622391156,-0.8732,0.6995,-0.5643,35.06,-1.7,-8.4,
17638,1661622391156,-0.9205,0.6615,0.0983,44.05,4.4,-4.2,
17639,1661622391156,-0.8698,0.8114,0.2922,46.94,-2.21,-10.58,
17640,1661622391156,-0.8297,0.682,-0.5472,50.04,-13.45,-7.85,
17641,1661622391156,-0.8869,0.5882,-0.1292,48.96,2.88,-7.21,
17642,1661622391156,-0.8341,0.6453,0.1359,50.55,-2.11,-4.29,
17643,1661622391156,-0.776,0.3485,-0.5648,53.55,-6.1,-3.01,
17644,1661622391156,-0.7931,0.4852,-0.0599,54.25,-6.34,-5.85,
17645,1661622391156,-0.8463,0.2132,0.0705,55.84,-4.24,-7.75,
17646,1661622391156,-0.7457,0.0096,-0.3577,58.05,-13.88,-7.39,
17647,1661622391156,-0.9122,0.1356,-0.3489,57.14,-1.87,-4.29,
17648,1661622391156,-0.8571,0.0311,0.2604,57.44,3.38,-3.83,
17649,1661622391171,-0.8219,-0.1481,-0.4246,53.06,-13.36,-7.94,
17650,1661622391171,-0.8444,-0.134,-0.262,51.86,-18.87,-4.84,
17651,1661622391171,-0.9948,-0.3586,0.2224,56.05,-6.69,-0.74,
17652,1661622391171,-0.9718,-0.3258,-0.1517,50.15,-9.13,-2.11,
17653,1661622391171,-0.9088,-0.425,0.0588,46.35,-13.62,2.45,
17654,1661622391171,-1.1725,-0.3976,0.217,44.44,-10.92,-0.55,
17655,1661622391171,-1.0304,-0.3937,-0.0042,43.85,-18.36,4.01,
17656,1661622391171,-1.1251,-0.509,0.1491,35.47,-8.2,-4.57,
17657,1661622391171,-1.0172,-0.2702,0.402,35.33,-9.82,-1.47,
17658,1661622391171,-0.9215,-0.5363,-0.2723,32.27,-19.88,1.45,
17659,1661622391171,-0.9752,-0.3927,0.1999,29.46,-11.25,-7.94,
17660,1661622391177,-1.0578,-0.3786,0.3469,23.48,-14.72,-5.57,
17661,1661622391177,-1.1422,-0.4977,-0.0721,20.87,-15.22,-8.03,
17662,1661622391177,-1.1232,-0.2878,0.1291,19.77,-18.11,-7.39,
17663,1661622391177,-1.1793,-0.5016,0.3425,18.38,-14.38,-8.03,
17664,1661622391177,-1.1105,-0.3488,0.0593,14.98,-8.46,-7.75,
17665,1661622391177,-1.0475,-0.4274,-0.0897,10.35,-5.33,-13.69,
17666,1661622391177,-1.0529,-0.5343,0.1867,5.06,-8.13,-5.94,
17667,1661622391177,-1.1437,-0.3053,0.2311,3.88,-11.68,-7.85,
17668,1661622391177,-1.1159,-0.5768,-0.1834,7.68,-3.14,-1.38,
17669,1661622391177,-1.1608,-0.3654,0.3708,1.38,10.57,-4.2,
17670,1661622391177,-1.2111,-0.2941,0.3786,-0.63,10.66,-3.47,
17671,1661622391177,-1.0661,-0.4865,-0.1639,-4.52,-11.09,-2.11,
17672,1661622391177,-1.2155,0.0452,0.9011,-5.33,-6.43,-3.47,
17673,1661622391177,-1.2203,-0.0641,1.0607,-3.52,-2.63,1.0,
17674,1661622391177,-1.2658,-0.2272,0.0729,-4.23,1.85,-1.38,
17675,1661622391177,-1.0973,0.0575,0.4401,-7.42,13.79,-0.55,
17676,1661622391177,-1.2291,0.1073,1.2819,-10.92,21.48,-0.64,
17677,1661622391177,-1.0412,0.4256,-0.0042,-8.03,3.04,1.28,
17678,1661622391177,-0.9933,0.3514,-0.3787,-4.42,-0.42,-1.56,
17679,1661622391177,-1.068,0.3631,0.5773,1.38,14.72,-0.83,
17680,1661622391177,-1.1471,0.8084,0.5148,2.07,5.67,-3.92,
17681,1661622391177,-0.9323,0.5262,-0.5687,2.47,3.04,-3.65,
17682,1661622391177,-0.8678,0.7918,0.1643,2.27,13.95,-2.02,
17683,1661622391177,-0.8825,0.9676,0.3532,7.76,7.77,-3.28,
17684,1661622391177,-0.8722,0.724,-0.1961,10.28,1.61,-2.73,
17685,1661622391177,-0.7838,0.8402,-0.4026,15.97,-1.87,-5.66,
17686,1661622391189,-0.8634,0.7093,0.2912,18.76,5.07,-8.94,
17687,1661622391189,-0.9694,0.6556,0.1237,20.85,1.44,-2.92,
17688,1661622391189,-1.0314,0.6781,-0.1927,24.16,-2.71,-5.94,
17689,1661622391189,-0.943,0.5184,-0.0379,26.65,8.63,-0.46,
17690,1661622391189,-0.985,0.5838,0.5173,27.06,10.83,-3.28,
17691,1661622391189,-1.1159,0.6575,0.1603,30.45,6.67,-0.19,
17692,1661622391189,-0.858,0.2386,-0.1233,33.94,2.28,-2.73,
17693,1661622391189,-0.9664,0.5877,0.4665,38.17,6.67,-4.2,
17694,1661622391189,-1.0387,0.6239,0.5661,41.16,5.07,-0.64,
17695,1661622391189,-0.9723,0.3983,-0.0648,43.07,2.28,2.45,
17696,1661622391189,-0.8126,0.4349,-0.4192,46.17,-2.28,0.64,
17697,1661622391189,-0.901,0.6117,0.3674,45.97,5.41,1.63,
17698,1661622391189,-1.0328,0.6815,0.3981,50.04,2.71,1.81,
17699,1661622391189,-0.7633,0.4295,-0.6697,52.64,-9.39,0.18,
17700,1661622391189,-0.7413,0.3162,-0.3519,53.66,-5.24,0.91,
17701,1661622391189,-0.8224,0.7493,0.1672,54.63,-8.55,0.09,
17702,1661622391189,-0.6954,0.3123,-0.5223,56.34,-15.82,-2.73,
17703,1661622391189,-0.7828,0.1932,-0.4339,54.25,-2.54,-2.29,
17704,1661622391189,-0.7887,0.4881,-0.0096,54.94,-10.66,-3.92,
17705,1661622391189,-0.8361,0.2283,-0.4144,55.55,-17.94,-5.57,
17706,1661622391189,-0.8644,0.264,0.1169,57.96,-6.01,-10.49,
17707,1661622391189,-0.8766,-0.0622,0.009,57.96,-3.98,-6.21,
17708,1661622391189,-0.9298,-0.1388,-0.4393,50.44,-12.86,-9.68,
17709,1661622391189,-1.0221,-0.1764,0.2155,52.06,-8.46,-12.77,
17710,1661622391189,-0.987,-0.5392,0.1462,53.26,0.08,-9.95,
17711,1661622391189,-0.9865,-0.4621,-0.5032,42.17,-10.16,-10.67,
17712,1661622391189,-1.0797,-0.57,0.3513,39.76,-16.41,-7.11,
17713,1661622391189,-1.0812,-0.7536,0.6545,40.57,-21.4,-7.66,
17714,1661622391189,-1.1115,-0.5754,-0.0486,34.77,-19.11,-5.39,
17715,1661622391189,-0.9708,-0.7243,-0.1385,27.05,-7.36,1.45,
17716,1661622391189,-1.1188,-0.759,0.5329,25.48,-8.13,2.55,
17717,1661622391189,-1.0353,-0.5856,0.3366,25.26,-23.86,0.18,
17718,1661622391189,-1.0988,-0.5065,0.0236,22.97,-19.2,3.46,
17719,1661622391189,-1.0626,-0.3688,0.2102,16.38,-11.93,-0.46,
17720,1661622391205,-1.1627,-0.5339,0.4919,13.27,-3.3,0.27,
17721,1661622391205,-1.0338,-0.0817,0.2092,11.27,1.78,2.82,
17722,1661622391205,-0.9796,-0.1759,-0.2244,10.08,-12.95,1.9,
17723,1661622391205,-1.0875,-0.5163,-0.2034,6.97,-12.43,1.81,
17724,1661622391205,-1.1456,-0.1623,0.4733,4.59,-12.18,-2.64,
17725,1661622391205,-1.0079,-0.2526,0.0461,0.98,-6.51,-2.2,
17726,1661622391205,-1.0387,-0.1867,-0.0838,4.68,-2.54,-7.48,
17727,1661622391205,-1.1627,-0.1955,0.5026,1.37,-2.04,0.36,
17728,1661622391205,-1.2589,-0.2218,0.7629,-7.01,1.78,-4.66,
17729,1661622391205,-1.1666,-0.0207,0.4445,-5.93,-4.14,-4.11,
17730,1661622391205,-1.1266,-0.2463,0.113,-5.44,1.01,-1.19,
17731,1661622391205,-1.215,-0.0085,0.8376,-3.52,6.51,0.73,
17732,1661622391205,-1.1935,0.0472,0.4685,-3.32,9.47,-0.55,
17733,1661622391205,-1.087,-0.09,0.1169,-1.82,14.03,1.28,
17734,1661622391205,-1.0509,0.0296,0.2702,-5.53,18.78,-3.19,
17735,1661622391205,-1.1745,0.3407,0.4875,-8.22,8.54,1.28,
17736,1661622391205,-0.9996,0.0955,-0.1038,-5.33,-3.55,-4.47,
17737,1661622391205,-1.1271,0.5404,0.3293,0.37,-0.85,-1.65,
17738,1661622391205,-0.9586,0.5111,0.402,4.98,-4.4,-5.39,
17739,1661622391205,-0.9699,0.512,-0.0628,5.88,1.61,-2.29,
17740,1661622391205,-0.8878,0.703,0.0768,8.86,12.35,-0.37,
17741,1661622391205,-0.9577,0.5853,0.3303,9.67,18.01,-2.83,
17742,1661622391205,-0.7745,0.9119,-0.0608,13.67,10.73,-5.48,
17743,1661622391205,-0.8361,0.8284,-0.2186,16.08,2.54,-4.75,
17744,1661622391205,-0.9323,0.6742,0.1569,19.25,5.24,-2.83,
17745,1661622391205,-0.966,0.8592,-0.0066,20.76,-5.67,-11.04,
17746,1661622391205,-0.943,0.7474,-0.032,25.37,6.93,-5.57,
17747,1661622391205,-0.9435,0.888,0.3537,26.77,15.39,-9.31,
17748,1661622391205,-0.8385,0.6815,-0.1385,25.73,1.85,-4.47,
17749,1661622391218,-0.923,0.6649,-0.1067,27.75,3.12,-7.11,
17750,1661622391218,-0.9684,0.9261,0.3439,36.75,4.57,-4.57,
17751,1661622391218,-0.86,0.6263,-0.0008,43.14,3.55,-4.11,
17752,1661622391218,-0.841,0.6644,-0.0696,46.35,7.36,-4.38,
17753,1661622391218,-0.9147,0.5775,-0.0164,49.17,7.27,-0.19,
17754,1661622391218,-0.8532,0.3817,-0.3191,52.15,3.97,-6.47,
17755,1661622391218,-0.7902,0.4285,-0.3426,50.24,-5.07,-6.21,
17756,1661622391218,-0.8722,0.3934,-0.1321,52.74,-12.35,-3.38,
17757,1661622391218,-0.716,0.1483,-0.3231,52.94,-17.51,-2.2,
17758,1661622391218,-0.7501,0.307,-0.2566,57.75,-7.2,-2.92,
17759,1661622391218,-0.7228,0.0242,-0.0555,57.06,-7.1,1.28,
17760,1661622391218,-0.8639,0.0677,0.0485,53.03,-10.92,-0.74,
17761,1661622391218,-0.8102,0.0623,0.131,50.24,-16.92,-0.46,
17762,1661622391218,-0.8331,0.0365,0.1052,56.54,-9.9,-3.56,
17763,1661622391218,-0.8644,0.0355,-0.3069,60.34,-12.35,-2.92,
17764,1661622391218,-0.8453,-0.1388,-0.0247,50.44,0.68,-4.57,
17765,1661622391218,-0.9464,-0.0451,0.2321,46.06,-3.14,-8.94,
17766,1661622391218,-0.9323,-0.215,-0.5569,49.16,-18.87,-7.57,
17767,1661622391218,-1.0573,-0.2668,-0.0662,52.35,-17.34,-9.59,
17768,1661622391218,-1.0963,-0.1027,0.4055,45.25,-12.86,-6.03,
17769,1661622391218,-0.9806,-0.4557,-0.2264,38.25,-17.85,-4.47,
17770,1661622391218,-1.0216,-0.3874,0.1291,36.16,-19.63,-9.13,
17771,1661622391218,-1.0685,-0.4352,0.4582,35.45,-16.67,-6.75,
17772,1661622391218,-1.1178,-0.5138,0.1242,30.85,-10.92,-8.21,
17773,1661622391218,-1.0397,-0.5275,0.0832,25.67,-9.47,-4.11,
17774,1661622391218,-1.1149,-0.6672,0.2829,22.87,-13.36,-6.03,
17775,1661622391218,-1.0724,-0.4201,0.3659,21.25,-14.05,-4.93,
17776,1661622391218,-1.0949,-0.4792,-0.0589,21.68,-11.59,-5.11,
17777,1661622391218,-0.9996,-0.7145,-0.0174,12.37,-10.99,-2.02,
17778,1661622391218,-1.1842,-0.3708,0.3088,9.67,-19.46,-3.74,
17779,1661622391218,-1.0661,-0.5837,-0.1282,10.67,-21.83,3.46,
17780,1661622391218,-1.0197,-0.4411,0.1198,7.96,-0.59,-1.01,
17781,1661622391218,-1.0841,-0.3581,0.5119,3.27,11.76,0.55,
17782,1661622391218,-1.0211,-0.4621,0.1672,-3.33,-5.07,-3.1,
17783,1661622391233,-1.1574,-0.2492,0.0139,0.68,-9.22,-2.73,
17784,1661622391233,-1.1412,-0.3278,0.6657,0.97,-5.76,2.91,
17785,1661622391233,-1.2951,-0.1481,0.4543,-1.12,0.25,2.45,
17786,1661622391233,-1.1857,-0.0119,0.2429,-5.03,5.58,3.92,
17787,1661622391233,-1.1115,-0.2179,0.3781,-7.73,15.56,1.54,
17788,1661622391233,-1.1266,0.0242,0.6227,-11.73,11.5,-1.93,
17789,1661622391233,-1.1486,0.2523,0.2448,-7.21,-3.47,-0.37,
17790,1661622391233,-1.1915,0.0755,0.256,-4.63,0.08,-3.38,
17791,1661622391233,-1.1803,0.4486,0.3561,-4.23,0.68,1.1,
17792,1661622391233,-1.0724,0.4134,0.3566,-2.33,9.56,0.27,
17793,1661622391233,-1.1373,0.4442,0.3327,-4.54,11.16,-5.3,
17794,1661622391233,-1.005,0.6234,0.0461,1.38,5.91,-0.83,
17795,1661622391233,-1.0075,0.4285,0.0344,3.88,10.06,-1.56,
17796,1661622391233,-0.9669,0.7806,-0.0081,7.56,10.14,-3.83,
17797,1661622391233,-0.8341,0.8177,-0.1546,10.17,3.38,-8.03,
17798,1661622391233,-0.7804,0.3641,-0.2806,15.47,-0.18,-5.39,
17799,1661622391241,-1.0236,0.7469,0.1457,13.68,5.67,-5.39,
17800,1661622391241,-0.9083,0.5443,-0.0623,16.27,-1.11,-6.75,
17801,1661622391241,-0.8927,0.5086,-0.2327,19.95,-9.39,-5.48,
17802,1661622391241,-0.945,0.7005,0.3752,24.45,-1.78,-4.75,
17803,1661622391241,-0.9523,0.4876,0.5222,24.47,4.9,-0.74,
17804,1661622391241,-1.0719,0.6004,0.2263,25.66,1.69,-0.64,
17805,1661622391241,-0.9137,0.5599,0.2888,29.55,4.65,2.09,
17806,1661622391241,-0.9948,0.7318,0.5627,33.55,13.36,-0.83,
17807,1661622391241,-0.9201,0.7987,0.2517,38.05,9.22,-4.47,
17808,1661622391241,-0.7819,0.4632,-0.2991,39.67,9.56,0.45,
17809,1661622391241,-0.9113,0.7503,0.3098,42.44,14.55,-5.85,
17810,1661622391241,-0.8883,0.7191,-0.3982,48.04,-5.41,-3.47,
17811,1661622391241,-0.8873,0.4945,-0.5027,50.56,-8.55,-3.65,
17812,1661622391241,-0.8439,0.7464,0.0969,51.28,-6.34,-2.2,
17813,1661622391241,-0.776,0.6141,-0.1795,51.55,-11.25,-4.29,
17814,1661622391241,-0.7145,0.5794,-0.5984,51.05,-8.2,-5.57,
17815,1661622391241,-0.7604,0.4886,-0.1614,53.06,-6.77,-5.11,
17816,1661622391241,-0.8136,0.2816,0.0578,56.44,-7.53,-7.39,
17817,1661622391241,-0.8805,0.262,-0.3426,59.26,-14.21,-7.57,
17818,1661622391241,-0.9103,0.0047,-0.0794,59.84,-6.6,-9.86,
17819,1661622391241,-0.8185,0.1605,0.1257,57.64,-4.4,-9.13,
17820,1661622391241,-0.9303,0.0907,-0.0838,50.87,-3.73,-9.4,
17821,1661622391241,-0.8287,-0.3449,-0.4051,50.06,-11.33,-7.3,
17822,1661622391241,-0.8854,-0.4338,-0.0926,53.25,-11.25,-5.76,
17823,1661622391241,-1.049,-0.3395,0.1413,50.56,-16.32,-8.12,
17824,1661622391241,-0.9894,-0.6115,-0.1849,42.35,-23.09,-6.21,
17825,1661622391241,-1.0949,-0.5319,0.1252,44.44,-14.81,-3.1,
17826,1661622391241,-1.0748,-0.5519,0.4699,40.86,-10.06,4.28,
17827,1661622391241,-1.0651,-0.4425,0.1223,32.56,-17.51,1.81,
17828,1661622391241,-0.9718,-0.6925,0.0256,32.57,-19.8,-0.0,
17829,1661622391241,-1.1359,-0.4201,0.4811,32.27,-11.93,-2.11,
17830,1661622391241,-1.0822,-0.443,0.1296,27.46,-12.78,-1.01,
17831,1661622391241,-1.1759,-0.5807,-0.0003,21.26,-9.9,-4.38,
17832,1661622391241,-1.0812,-0.342,0.156,17.27,-14.55,-4.02,
17833,1661622391256,-1.0944,-0.28,0.134,18.38,-20.81,-2.48,
17834,1661622391256,-1.1276,-0.4211,0.2219,13.67,-14.29,-3.19,
17835,1661622391258,-1.0412,-0.2883,-0.1043,11.76,-14.64,-3.92,
17836,1661622391258,-1.0568,-0.4465,0.0314,11.07,-7.53,-3.1,
17837,1661622391258,-1.1647,-0.1584,0.4841,6.46,-3.21,-2.2,
17838,1661622391258,-1.0773,-0.5011,0.0451,2.57,-5.24,-1.47,
17839,1661622391258,-1.0138,-0.3005,0.1096,-1.21,-6.17,-4.47,
17840,1661622391258,-1.2101,-0.1486,0.3161,-1.21,3.12,-3.01,
17841,1661622391258,-1.2077,-0.4157,0.3161,0.36,6.0,-0.64,
17842,1661622391258,-1.1193,-0.3312,0.1838,-3.23,7.44,0.36,
17843,1661622391258,-1.2433,-0.0529,0.5695,-6.11,8.96,-0.37,
17844,1661622391258,-1.1183,-0.3674,0.3225,-9.12,1.09,-0.19,
17845,1661622391258,-1.1246,0.1185,0.5095,-9.21,-1.02,-5.85,
17846,1661622391258,-1.1076,0.0745,0.6794,-7.54,-0.18,-1.56,
17847,1661622391258,-1.1676,0.0316,0.3889,-3.71,2.19,-0.46,
17848,1661622391258,-1.1076,0.2816,0.2741,-1.53,8.7,-2.11,
17849,1661622391258,-1.0656,0.3167,0.6965,-2.81,14.03,1.1,
17850,1661622391258,-1.2721,0.4691,0.6457,-4.63,14.03,0.27,
17851,1661622391258,-1.0372,0.5999,-0.1175,-3.52,0.85,-2.83,
17852,1661622391258,-0.9923,0.4847,0.07,-0.04,8.2,-3.38,
17853,1661622391258,-0.8663,0.9154,0.2302,3.17,1.44,-4.2,
17854,1661622391258,-0.839,0.7049,-0.3846,9.26,-1.44,0.45,
17855,1661622391258,-0.8947,0.6751,-0.3607,10.28,0.08,-4.66,
17856,1661622391258,-0.9025,0.9857,0.1003,12.46,3.12,-3.83,
17857,1661622391258,-0.8585,0.7479,-0.077,16.15,4.31,-7.48,
17858,1661622391258,-0.8922,0.847,-0.1917,22.07,-0.94,-9.95,
17859,1661622391258,-0.9762,0.7479,0.3249,24.36,1.35,-7.48,
17860,1661622391258,-1.0045,0.6395,0.4128,28.07,2.71,-10.32,
17861,1661622391258,-1.0529,0.7318,-0.0081,27.66,-2.28,-8.03,
17862,1661622391258,-0.9562,0.554,0.0217,34.17,11.5,-8.03,
17863,1661622391258,-0.8947,0.5384,0.2717,34.26,12.26,-6.75,
17864,1661622391258,-0.9674,0.5658,-0.118,36.84,7.1,-5.21,
17865,1661622391258,-0.8097,0.3617,-0.1356,39.07,1.85,-6.56,
17866,1661622391258,-0.8537,0.3939,-0.0149,40.66,-3.38,-5.85,
17867,1661622391258,-0.9323,0.389,-0.0584,49.66,-9.73,-3.92,
17868,1661622391258,-0.8976,0.3861,-0.1326,54.25,-9.65,0.27,
17869,1661622391258,-0.8258,0.4281,-0.0135,51.55,-3.98,-3.83,
17870,1661622391273,-0.7335,0.3241,0.0231,48.26,-0.08,-1.38,
17871,1661622391273,-0.8722,0.408,-0.2884,48.65,-9.13,-2.48,
17872,1661622391273,-0.7008,0.2225,-0.2088,54.06,-15.91,-2.11,
17873,1661622391273,-0.8224,0.2176,0.2038,55.76,3.04,0.09,
17874,1661622391273,-0.7365,0.47,0.0876,59.64,0.85,-4.47,
17875,1661622391273,-0.7413,0.096,-0.9964,57.66,-12.95,-3.92,
17876,1661622391273,-0.8732,0.1795,-0.0115,49.55,-8.03,-8.85,
17877,1661622391273,-0.945,0.2313,0.3605,49.26,-13.19,-4.2,
17878,1661622391273,-0.8146,-0.1305,-0.9256,54.56,-23.35,-7.11,
17879,1661622391273,-0.8644,-0.0802,-0.1424,51.66,-11.51,-0.74,
17880,1661622391273,-1.0919,-0.2448,0.7868,46.76,-11.76,-5.57,
17881,1661622391273,-1.1911,-0.2663,0.28,51.16,-20.73,-2.11,
17882,1661622391273,-1.0119,-0.4577,-0.6053,49.05,-13.45,-2.83,
17883,1661622391273,-1.0665,-0.5973,0.6345,35.06,3.12,-7.11,
17884,1661622391273,-1.1442,-0.3962,0.5998,29.85,-13.02,-3.65,
17885,1661622391273,-0.9757,-0.7585,-0.4739,34.26,-27.75,-7.85,
17886,1661622391273,-1.0236,-0.7458,0.3117,30.65,-15.74,-6.3,
17887,1661622391273,-1.2169,-0.5549,0.5783,26.77,-1.87,-6.21,
17888,1661622391273,-0.9933,-0.7497,-0.346,20.15,-13.88,-6.12,
17889,1661622391273,-1.0875,-0.4626,0.238,17.68,-19.88,-6.93,
17890,1661622391273,-1.1266,-0.6266,0.5134,16.38,-21.74,-6.3,
17891,1661622391273,-1.1422,-0.3581,0.0314,10.87,-11.68,-0.83,
17892,1661622391273,-0.9904,-0.2907,0.1105,10.48,-3.04,-1.47,
17893,1661622391273,-1.0079,-0.5807,0.3259,8.78,-4.14,1.72,
17894,1661622391273,-1.0949,-0.2145,0.0187,7.26,-15.05,-7.75,
17895,1661622391273,-1.0607,-0.4255,0.2897,2.79,-3.47,-3.47,
17896,1661622391273,-1.0939,-0.2131,0.5275,-5.21,12.52,-6.56,
17897,1661622391273,-1.1325,-0.1369,-0.3504,-6.02,-2.88,-6.84,
17898,1661622391273,-1.2418,-0.2624,0.5197,-3.23,0.92,-4.47,
17899,1661622391273,-1.2501,-0.0065,1.1154,-3.71,2.45,-10.32,
17900,1661622391273,-1.1637,0.0086,0.3561,-3.64,-5.33,-8.49,
17901,1661622391273,-1.1862,-0.0734,-0.2259,-10.02,-4.48,-8.3,
17902,1661622391289,-1.1578,0.1815,0.8381,-5.64,19.28,-3.47,
17903,1661622391289,-1.1637,-0.0314,0.7248,-3.93,16.15,-1.74,
17904,1661622391289,-1.1212,0.2313,-0.2083,-6.34,4.14,-2.48,
17905,1661622391289,-1.0451,0.2825,0.425,-3.91,6.67,-3.83,
17906,1661622391289,-1.0578,0.1698,0.6789,-3.52,3.38,-5.3,
17907,1661622391289,-1.0426,0.5023,0.0632,-4.33,-0.01,-8.12,
17908,1661622391289,-0.964,0.4198,-0.3528,-0.83,0.68,-7.3,
17909,1661622391289,-0.9728,0.4598,0.301,6.07,10.4,-1.56,
17910,1661622391289,-0.9596,0.6561,0.1833,7.96,9.47,-0.83,
17911,1661622391289,-0.8273,0.4964,-0.178,8.48,1.52,-3.1,
17912,1661622391289,-0.903,0.6859,-0.0257,9.58,-1.61,-5.66,
17913,1661622391289,-0.8336,0.7401,0.4567,12.66,-0.51,-0.55,
17914,1661622391289,-0.9655,0.6468,-0.056,18.36,2.28,-4.84,
17915,1661622391289,-0.8444,0.7464,-0.2181,23.46,5.33,-3.47,
17916,1661622391289,-0.9157,0.5853,0.132,25.48,13.79,-0.0,
17917,1661622391289,-1.0783,0.742,0.5715,24.67,13.69,-3.74,
17918,1661622391289,-0.8932,0.804,-0.1985,26.25,0.68,-1.47,
17919,1661622391289,-0.8912,0.5379,-0.1067,30.27,5.15,-4.11,
17920,1661622391289,-0.9728,0.9056,0.2326,36.46,-0.08,-4.93,
17921,1661622391289,-0.9337,0.825,0.0959,39.54,2.71,-3.38,
17922,1661622391289,-0.903,0.6595,-0.1204,42.76,3.21,-5.39,
17923,1661622391289,-0.8766,0.7054,-0.2737,44.26,-4.31,-5.85,
17924,1661622391289,-0.9264,0.6053,-0.1121,48.65,-5.33,-3.19,
17925,1661622391289,-0.8717,0.6688,-0.0008,50.96,-0.34,-4.02,
17926,1661622391289,-0.7638,0.2972,-0.5066,51.66,-8.29,-4.47,
17927,1661622391289,-0.7526,0.1868,-0.5086,51.54,-12.69,-6.3,
17928,1661622391289,-0.8434,0.4901,0.0847,52.16,-3.9,-0.37,
17929,1661622391289,-0.8322,0.1063,-0.219,58.85,-12.43,-1.47,
17930,1661622391289,-0.7907,-0.0866,-0.4681,54.76,-17.08,-2.48,
17931,1661622391289,-0.9708,0.1771,0.2282,53.34,-16.75,-6.66,
17932,1661622391289,-0.8234,-0.1818,-0.0794,56.24,-12.78,-3.38,
17933,1661622391289,-0.817,-0.0578,-0.2591,54.76,-2.11,-10.39,
17934,1661622391289,-0.8312,-0.2648,0.1848,45.66,-13.71,-5.39,
17935,1661622391289,-0.9855,-0.2013,-0.0208,51.95,-15.91,-13.23,
17936,1661622391305,-0.9137,-0.4557,-0.1834,51.35,-12.09,-6.56,
17937,1661622391305,-1.1876,-0.3068,0.2531,42.84,-4.14,-8.12,
17938,1661622391305,-1.0392,-0.2907,-0.0169,37.55,-16.24,-2.55,
17939,1661622391305,-1.1613,-0.6242,0.0764,43.65,-21.49,-2.38,
17940,1661622391305,-1.1095,-0.4504,0.2946,37.27,-17.25,-1.47,
17941,1661622391305,-1.1076,-0.361,0.0803,31.67,-18.87,-0.46,
17942,1661622391305,-1.1203,-0.5256,0.0427,23.55,-7.44,4.1,
17943,1661622391305,-1.0783,-0.3527,0.2766,24.16,-15.57,0.18,
17944,1661622391305,-1.1359,-0.5671,0.0456,25.75,-17.51,4.19,
17945,1661622391305,-1.1574,-0.2677,0.3019,20.96,-12.18,-1.01,
17946,1661622391305,-1.1085,-0.5246,0.1511,15.66,-12.95,0.64,
17947,1661622391305,-0.9855,-0.4679,0.0471,13.05,-12.52,-4.84,
17948,1661622391305,-1.0661,-0.4152,0.133,10.98,-13.19,-6.03,
17949,1661622391305,-1.1242,-0.5514,0.0617,7.76,-3.14,-4.38,
17950,1661622391305,-1.0216,-0.488,0.1535,3.69,-1.52,-4.84,
17951,1661622391305,-1.1544,-0.3444,0.3029,0.79,-1.95,-3.56,
17952,1661622391305,-1.0812,-0.6261,0.1306,-4.42,-14.38,-4.57,
17953,1661622391305,-1.2311,-0.2355,0.4333,-5.44,-3.14,-6.12,
17954,1661622391305,-1.1017,-0.3547,0.4543,-1.12,7.44,-3.65,
17955,1661622391305,-1.1876,-0.1613,0.3747,-6.34,12.43,-1.1,
17956,1661622391305,-1.172,-0.005,0.6086,-8.23,15.81,-1.1,
17957,1661622391305,-1.2081,-0.172,0.6306,-8.61,2.54,-1.38,
17958,1661622391305,-1.1002,0.0584,0.1286,-5.44,-8.72,-7.11,
17959,1661622391305,-1.1051,0.1073,0.6071,-6.34,10.9,-3.65,
17960,1661622391305,-1.0929,0.2762,0.5827,-8.73,18.61,-3.47,
17961,1661622391305,-0.986,0.3763,-0.3221,-9.82,5.07,-0.74,
17962,1661622391305,-0.9425,0.346,-0.1346,-7.01,3.12,1.63,
17963,1661622391305,-1.0949,0.5965,0.8225,-3.21,6.26,-1.01,
17964,1661622391305,-1.0368,0.6395,0.0168,3.38,-4.57,-2.29,
17965,1661622391305,-0.9054,0.5789,-0.2884,4.77,-2.54,-4.84,
17966,1661622391305,-0.8488,0.9808,0.3942,2.47,9.13,-8.76,
17967,1661622391305,-0.8468,0.8822,0.3405,4.59,11.42,-8.49,
17968,1661622391305,-0.8087,0.721,-0.408,11.86,7.87,-8.67,
17969,1661622391305,-0.8727,0.764,-0.2112,18.06,5.67,-12.13,
17970,1661622391305,-0.9518,0.5706,0.2473,20.78,12.18,-10.23,
17971,1661622391320,-0.9655,0.7181,-0.2239,19.46,0.33,-13.32,
17972,1661622391320,-0.944,0.6619,-0.366,22.07,0.08,-10.49,
17973,1661622391320,-0.8283,0.4066,0.1208,25.46,2.37,-7.3,
17974,1661622391320,-1.1046,0.7235,0.3869,28.18,-2.04,-12.59,
17975,1661622391320,-0.8903,0.3758,-0.0672,30.94,-0.51,-5.94,
17976,1661622391320,-0.8937,0.5037,0.2136,32.86,7.87,-6.4,
17977,1661622391320,-0.9284,0.5784,0.531,35.16,16.49,-6.66,
17978,1661622391320,-0.8766,0.431,0.259,39.65,7.36,-6.84,
17979,1661622391320,-0.8615,0.4871,-0.3909,43.66,-1.87,-7.94,
17980,1661622391320,-0.7965,0.5487,-0.0042,45.85,-3.38,-6.47,
17981,1661622391320,-0.9874,0.6351,0.3088,49.84,1.69,-8.49,
17982,1661622391320,-0.7653,0.4705,-0.7142,53.54,-13.54,-2.29,
17983,1661622391320,-0.7301,0.3773,-0.45,49.26,-5.76,-1.93,
17984,1661622391320,-0.8278,0.7703,0.09,45.56,-8.46,-5.3,
17985,1661622391320,-0.8497,0.5467,-0.2068,50.45,-18.87,-2.73,
17986,1661622391320,-0.7619,0.2069,-0.4271,53.66,-10.66,-6.66,
17987,1661622391320,-0.796,0.4783,-0.1815,53.77,-13.02,-7.85,
17988,1661622391320,-0.9342,0.1688,-0.1522,56.65,-16.32,-8.21,
17989,1661622391320,-0.9127,0.2142,0.1398,58.45,-8.29,-9.04,
17990,1661622391320,-0.8395,-0.1623,-0.2093,53.26,-8.89,-8.4,
17991,1661622391320,-0.9078,-0.1784,-0.1375,45.97,-9.06,-8.67,
17992,1661622391320,-0.9904,-0.277,0.1896,46.65,-12.35,-8.3,
17993,1661622391320,-0.9284,-0.7004,-0.1175,52.96,-7.79,-1.74,
17994,1661622391320,-0.9381,-0.6266,-0.2464,46.96,-12.09,-0.37,
17995,1661622391320,-1.1666,-0.5099,0.2023,36.45,-19.71,-2.11,
17996,1661622391320,-1.0773,-0.8097,0.2912,35.36,-27.25,-1.47,
17997,1661622391320,-1.0641,-0.5539,0.0627,32.66,-15.91,-2.2,
17998,1661622391320,-1.0485,-0.7101,0.2248,26.57,-9.3,1.54,
17999,1661622391320,-1.1027,-0.7262,0.1398,22.85,-12.52,-3.74,
18000,1661622391320,-0.9982,-0.5602,0.3542,23.55,-16.41,-1.83,
18001,1661622391320,-1.2462,-0.4191,0.3669,24.06,-16.92,-6.84,
18002,1661622391320,-1.0607,-0.4347,-0.0955,18.98,-15.31,-6.47,
18003,1661622391320,-1.2306,-0.4704,0.5773,9.88,-0.68,-7.57,
18004,1661622391320,-1.1447,-0.2228,0.8356,8.46,1.18,-8.21,
18005,1661622391336,-0.9845,-0.2756,-0.3748,10.98,-21.83,-1.38,
18006,1661622391336,-1.0646,-0.5763,-0.1697,5.47,-12.43,-5.21,
18007,1661622391336,-1.1886,-0.1178,0.902,-3.01,-4.31,-6.75,
18008,1661622391336,-1.0841,-0.3312,-0.1732,-3.42,-1.61,-7.66,
18009,1661622391336,-1.0802,-0.1906,-0.1746,1.56,-1.87,-7.48,
18010,1661622391336,-1.2282,-0.2028,0.883,-2.54,3.97,-8.4,
18011,1661622391336,-1.2374,-0.1134,0.4191,-5.93,-8.29,-5.3,
18012,1661622391336,-1.1769,-0.0778,0.07,-6.83,-9.65,-6.4,
18013,1661622391336,-1.1437,-0.2721,0.3098,-5.71,7.44,-0.83,
18014,1661622391336,-1.1876,-0.0685,0.7844,-8.32,14.88,-4.2,
18015,1661622391336,-1.1896,0.0653,0.2946,-7.53,15.56,-2.29,
18016,1661622391336,-1.0202,-0.2326,0.114,-8.81,6.08,-2.38,
18017,1661622391336,-1.1911,0.304,0.569,-12.72,4.14,-9.04,
18018,1661622391336,-1.1105,0.3065,0.5036,-6.72,-5.07,-1.83,
18019,1661622391336,-1.0197,0.1991,0.0368,-1.21,0.68,-1.65,
18020,1661622391336,-1.0143,0.5789,0.341,0.79,13.28,-2.2,
18021,1661622391336,-0.9616,0.4242,0.2004,0.16,11.42,0.45,
18022,1661622391336,-0.9371,0.7367,0.1184,0.57,13.19,-1.1,
18023,1661622391336,-0.88,0.7528,0.1262,3.09,6.6,-5.3,
18024,1661622391336,-0.9269,0.5926,0.1833,5.76,4.22,-2.02,
18025,1661622391336,-0.7809,1.0306,0.0246,14.76,1.44,-2.73,
18026,1661622391336,-0.7462,0.6702,-0.2103,17.86,-3.55,-2.48,
18027,1661622391336,-0.8971,0.5433,-0.1282,14.26,6.77,-2.2,
18028,1661622391336,-0.966,0.9783,0.134,17.56,3.04,-5.48,
18029,1661622391336,-0.9708,0.8055,0.1184,20.07,5.58,-5.76,
18030,1661622391336,-0.8761,0.8158,-0.0511,21.87,5.24,-8.12,
18031,1661622391336,-0.8786,0.6859,0.1257,26.25,3.21,-7.48,
18032,1661622391336,-0.9967,0.721,0.3264,30.16,8.2,-8.67,
18033,1661622391336,-0.9328,0.8822,0.0646,38.35,-0.34,-14.96,
18034,1661622391336,-0.8204,0.4725,-0.3021,39.06,5.41,-9.22,
18035,1661622391336,-0.8654,0.6634,0.2663,44.56,12.18,-9.13,
18036,1661622391336,-0.9127,0.5799,-0.1536,46.36,1.94,-7.75,
18037,1661622391336,-0.7462,0.242,-0.4852,48.74,-11.09,-7.75,
18038,1661622391351,-0.7946,0.3631,-0.158,47.07,-9.99,-8.4,
18039,1661622391351,-0.9186,0.3504,0.027,50.45,-14.47,-6.47,
18040,1661622391351,-0.7335,0.1624,-0.345,51.26,-9.9,-6.12,
18041,1661622391351,-0.8234,0.2938,-0.0135,53.75,-6.77,-5.76,
18042,1661622391351,-0.735,0.1307,-0.0403,50.96,-10.66,-2.29,
18043,1661622391351,-0.8244,0.2171,0.0075,48.44,-12.69,-3.47,
18044,1661622391351,-0.7794,0.0062,0.0749,55.25,-7.96,-0.0,
18045,1661622391351,-0.9186,0.1092,-0.3387,59.24,-3.73,-1.74,
18046,1661622391351,-0.8034,0.1937,-0.4109,52.24,-6.77,-1.01,
18047,1661622391351,-0.796,0.0125,0.1735,44.46,-6.6,-5.94,
18048,1661622391351,-0.8561,-0.1188,-0.202,46.55,-17.77,-5.02,
18049,1661622391351,-0.9635,-0.2521,-0.7596,54.76,-19.71,-8.03,
18050,1661622391351,-1.2238,-0.1979,0.4943,48.26,-7.7,-9.04,
18051,1661622391351,-1.1266,-0.2223,0.1203,37.85,-22.0,-9.77,
18052,1661622391351,-0.9728,-0.4909,-0.5296,39.96,-22.16,-2.73,
18053,1661622391351,-1.0895,-0.3429,0.7131,36.06,-4.66,-2.73,
18054,1661622391351,-1.0744,-0.5817,0.5236,31.15,-7.2,-3.01,
18055,1661622391351,-1.1173,-0.6813,-0.094,25.77,-16.92,-6.75,
18056,1661622391351,-1.0822,-0.5495,-0.117,30.25,-12.69,-4.11,
18057,1661622391351,-1.1432,-0.6296,0.6716,22.65,-8.63,-4.66,
18058,1661622391351,-1.0792,-0.5641,0.1218,17.68,-16.32,-1.93,
18059,1661622391351,-1.1012,-0.5099,-0.1522,16.15,-12.43,-9.49,
18060,1661622391351,-1.0626,-0.7472,0.2145,13.68,-17.6,-6.03,
18061,1661622391351,-1.1412,-0.4079,0.3264,6.98,-14.98,-2.11,
18062,1661622391351,-0.9791,-0.5446,0.0456,4.98,-10.66,2.09,
18063,1661622391351,-1.0661,-0.4425,0.195,6.78,-0.18,-4.29,
18064,1661622391351,-1.049,-0.4303,0.3757,3.37,4.05,-1.93,
18065,1661622391351,-1.087,-0.4465,0.2844,-2.31,-0.85,-5.11,
18066,1661622391351,-1.0885,-0.1764,0.2228,-2.42,-3.04,-10.23,
18067,1661622391351,-1.1359,-0.3488,0.2766,-4.83,-7.53,-1.56,
18068,1661622391351,-1.299,-0.0666,0.6198,-4.92,8.03,-6.3,
18069,1661622391351,-1.2033,0.0379,0.3986,-11.02,5.07,-0.19,
18070,1661622391351,-1.1549,-0.2165,0.1418,-12.92,1.26,-3.01,
18071,1661622391351,-1.0675,0.0369,0.3259,-11.44,1.26,-5.21,
18072,1661622391367,-1.1237,0.2664,0.5954,-11.22,3.38,-3.01,
18073,1661622391367,-1.1774,0.1302,0.423,-6.92,4.22,-4.29,
18074,1661622391367,-1.1222,0.4036,0.2048,-5.71,4.14,-1.56,
18075,1661622391367,-1.1246,0.3392,0.4655,-2.62,10.49,0.09,
18076,1661622391367,-1.0831,0.4627,0.4123,-1.93,14.46,-3.01,
18077,1661622391367,-0.9928,0.5062,-0.0701,-1.52,9.47,-4.02,
18078,1661622391367,-0.9542,0.3524,-0.0272,2.07,7.36,-7.66,
18079,1661622391367,-1.028,0.7464,0.1013,5.07,2.78,-7.11,
18080,1661622391367,-0.8742,0.5018,-0.2073,9.47,1.35,-2.29,
18081,1661622391367,-0.799,0.3333,-0.2557,12.28,-4.24,-5.48,
18082,1661622391367,-1.0065,0.7288,0.1745,9.67,1.85,-7.21,
18083,1661622391367,-0.9074,0.5086,0.009,11.18,-2.37,-0.46,
18084,1661622391367,-0.9552,0.5399,0.0334,17.37,3.64,-6.47,
18085,1661622391367,-0.9318,0.6195,0.3478,19.66,3.12,-2.55,
18086,1661622391367,-0.9591,0.5247,0.4328,21.75,12.43,-6.93,
18087,1661622391367,-1.0534,0.6981,0.2414,24.58,8.54,-7.75,
18088,1661622391367,-0.8932,0.575,0.2355,25.75,8.8,-8.94,
18089,1661622391367,-0.9557,0.7523,0.4269,29.35,15.72,-5.02,
18090,1661622391367,-0.9108,0.6224,-0.3948,32.56,1.69,-2.83,
18091,1661622391367,-0.7545,0.5111,-0.408,38.57,7.7,1.0,
18092,1661622391367,-0.8634,0.784,0.3234,42.66,12.35,-1.83,
18093,1661622391367,-0.8502,0.6888,-0.4388,44.06,-5.33,-2.11,
18094,1661622391367,-0.8673,0.5218,-0.5252,44.26,-8.37,-3.56,
18095,1661622391367,-0.8683,0.7088,0.1628,45.66,-8.55,-4.29,
18096,1661622391367,-0.8014,0.5252,-0.4676,47.84,-10.92,-4.11,
18097,1661622391367,-0.733,0.6004,-0.6038,50.44,-6.69,-5.66,
18098,1661622391367,-0.7501,0.4647,-0.077,53.77,-4.57,-6.03,
18099,1661622391367,-0.8029,0.1942,0.1257,55.46,-10.4,-8.67,
18100,1661622391367,-0.8434,0.18,-0.4529,57.05,-14.05,-12.59,
18101,1661622391367,-0.902,0.0018,-0.0975,56.86,-2.71,-10.76,
18102,1661622391367,-0.8043,0.0575,0.1901,51.14,-7.2,-8.76,
18103,1661622391367,-0.8615,-0.1354,-0.3714,48.36,-14.64,-11.95,
18104,1661622391367,-0.841,-0.4958,-0.4031,49.66,-14.05,-5.66,
18105,1661622391367,-1.0358,-0.277,0.2551,49.54,-10.16,-6.84,
18106,1661622391367,-0.9791,-0.5177,0.1105,46.56,-14.55,-5.11,
18107,1661622391383,-1.0333,-0.5417,-0.1927,38.64,-22.0,-3.19,
18108,1661622391383,-1.0206,-0.5192,0.0285,40.86,-14.55,-2.92,
18109,1661622391384,-1.0739,-0.5007,0.6535,37.87,-8.55,-5.48,
18110,1661622391384,-1.0661,-0.4152,0.093,32.36,-17.51,-5.39,
18111,1661622391384,-0.9469,-0.6999,-0.1653,26.65,-15.57,-2.29,
18112,1661622391384,-1.1242,-0.3205,0.7033,26.06,-3.04,-1.74,
18113,1661622391384,-1.0997,-0.4103,-0.0345,27.75,-13.95,2.09,
18114,1661622391384,-1.1207,-0.5314,-0.2225,17.57,-15.74,-3.92,
18115,1661622391384,-1.1564,-0.1364,0.6315,11.57,-13.95,-8.21,
18116,1661622391388,-1.1193,-0.4372,0.0339,14.87,-14.64,-3.1,
18117,1661622391388,-0.9782,-0.3195,-0.1902,15.27,-7.53,-5.85,
18118,1661622391388,-1.0817,-0.382,0.3786,10.46,-6.17,-4.2,
18119,1661622391388,-1.1608,-0.4118,0.4753,3.37,-15.57,-7.3,
18120,1661622391388,-1.173,-0.2721,0.1184,2.88,-18.11,-6.4,
18121,1661622391388,-1.0973,-0.6125,0.1032,3.98,-3.21,-4.84,
18122,1661622391388,-1.0944,-0.32,0.4953,-0.42,6.84,-4.57,
18123,1661622391388,-1.237,-0.256,0.2834,-3.23,12.43,-1.01,
18124,1661622391388,-1.0802,-0.5675,0.0871,-10.41,-0.59,-4.29,
18125,1661622391388,-1.2536,-0.0842,0.6726,-12.63,-4.07,-5.39,
18126,1661622391388,-1.1505,-0.2463,0.4372,-7.53,-7.1,-3.01,
18127,1661622391388,-1.1876,-0.2223,0.2321,-9.19,3.38,2.64,
18128,1661622391388,-1.0245,0.0565,0.425,-12.02,11.92,-1.56,
18129,1661622391388,-1.0646,0.0033,0.6227,-9.82,11.66,-3.65,
18130,1661622391388,-1.1242,0.3563,0.2888,-7.62,6.84,-1.47,
18131,1661622391388,-0.985,0.1629,0.1237,-3.93,-2.71,-1.28,
18132,1661622391388,-1.108,0.2635,0.4714,-2.63,9.13,1.63,
18133,1661622391388,-1.048,0.7762,0.4841,-4.43,4.22,-8.3,
18134,1661622391388,-1.0119,0.4608,-0.2435,-1.33,4.9,-5.76,
18135,1661622391388,-0.8068,0.6693,0.156,-1.94,14.88,-6.93,
18136,1661622391388,-0.8995,0.8773,0.2678,2.37,10.49,-5.3,
18137,1661622391388,-0.8981,0.7816,-0.056,6.48,1.09,-5.66,
18138,1661622391388,-0.8087,0.8294,-0.2518,10.46,-2.8,-6.21,
18139,1661622391388,-0.8571,0.8553,0.2521,11.18,3.55,-4.02,
18140,1661622391388,-0.9435,0.8763,0.0725,15.16,1.18,-12.32,
18141,1661622391388,-0.8829,0.724,-0.3519,23.06,-2.45,-7.11,
18142,1661622391388,-0.9772,0.5867,0.3806,24.85,14.21,-9.13,
18143,1661622391388,-1.0099,0.701,0.5017,26.16,14.21,-9.77,
18144,1661622391388,-0.9865,0.6151,-0.2273,26.86,2.28,-10.67,
18145,1661622391388,-0.8224,0.4056,-0.0457,31.06,3.81,-6.93,
18146,1661622391388,-0.9664,0.5277,0.3742,29.56,4.65,-7.66,
18147,1661622391388,-0.8922,0.3797,-0.1771,38.66,-6.17,-0.74,
18148,1661622391404,-0.799,0.3265,-0.2933,40.37,1.61,-1.83,
18149,1661622391404,-0.9039,0.4749,0.1516,42.55,4.65,-1.1,
18150,1661622391404,-0.839,0.4056,0.051,42.66,-2.45,-0.92,
18151,1661622391404,-0.9122,0.4554,-0.1839,47.14,-13.95,0.27,
18152,1661622391404,-0.7257,0.3602,0.0305,46.55,-12.52,-1.38,
18153,1661622391404,-0.8912,0.4583,-0.1453,48.35,-5.93,-2.48,
18154,1661622391404,-0.7433,0.3612,-0.5013,49.45,-8.29,-3.56,
18155,1661622391404,-0.6745,0.262,-0.1863,50.56,3.71,0.91,
18156,1661622391404,-0.7526,0.3905,0.2951,51.46,1.09,-1.65,
18157,1661622391404,-0.7863,0.2474,-0.9178,51.74,-29.27,-3.38,
18158,1661622391404,-0.8546,0.1483,-0.3401,49.74,-19.46,-2.92,
18159,1661622391404,-0.9318,0.3407,0.6101,46.75,-6.01,-5.57,
18160,1661622391404,-0.7975,-0.1369,-0.8094,49.05,-20.21,-2.11,
18161,1661622391404,-0.8952,-0.0236,-0.3226,49.14,-23.26,-6.93,
18162,1661622391404,-0.9464,-0.0251,0.5231,49.34,-3.3,-11.22,
18163,1661622391404,-1.0851,-0.3757,0.4851,48.06,-19.63,-9.31,
18164,1661622391404,-1.0285,-0.4499,-0.6395,46.26,-27.83,-7.94,
18165,1661622391411,-1.0348,-0.5827,0.3786,35.67,-5.0,-9.31,
18166,1661622391411,-1.0568,-0.4841,0.6022,30.63,-9.39,-5.94,
18167,1661622391411,-0.9918,-0.6315,-0.3602,30.37,-9.99,-7.75,
18168,1661622391411,-1.005,-0.9401,0.0241,29.37,-12.95,-6.75,
18169,1661622391411,-1.1867,-0.5475,0.5798,25.37,-23.52,-6.66,
18170,1661622391411,-1.1061,-0.6598,0.1013,19.36,-27.99,-1.01,
18171,1661622391411,-1.0866,-0.529,-0.0135,13.97,-13.95,-5.76,
18172,1661622391411,-1.0626,-0.5754,0.3908,14.76,-8.37,-4.66,
18173,1661622391411,-1.15,-0.6081,0.5148,13.68,-9.47,-2.64,
18174,1661622391411,-1.1242,-0.2131,0.3957,13.48,-12.61,-4.2,
18175,1661622391411,-0.8805,-0.4948,-0.1146,8.46,-18.36,-1.65,
18176,1661622391411,-1.173,-0.382,0.3166,4.17,2.45,-1.28,
18177,1661622391411,-1.1369,-0.1755,0.3625,2.57,3.81,0.36,
18178,1661622391411,-1.0714,-0.403,0.07,-1.84,7.01,-2.92,
18179,1661622391411,-1.0299,-0.2121,0.0041,-7.44,3.64,-4.38,
18180,1661622391411,-1.195,-0.1476,0.112,-10.83,-12.09,-5.48,
18181,1661622391411,-1.2648,-0.1955,0.6301,-7.82,-3.55,-5.48,
18182,1661622391411,-1.213,0.0877,0.4216,-4.74,-7.36,-6.03,
18183,1661622391411,-1.1764,-0.1847,0.0178,-9.83,2.78,-6.93,
18184,1661622391411,-1.1754,0.0892,0.6467,-14.61,14.46,-9.86,
18185,1661622391411,-1.193,0.0062,0.8142,-10.52,13.02,-6.56,
18186,1661622391411,-1.1251,0.0633,0.134,-5.91,1.69,-8.03,
18187,1661622391411,-1.1842,0.2132,-0.0062,-5.82,-0.94,-7.94,
18188,1661622391411,-1.0953,0.222,0.3825,-6.03,11.76,-2.2,
18189,1661622391411,-1.0905,0.2938,0.3454,-8.32,15.48,-2.2,
18190,1661622391411,-1.0831,0.4373,-0.2034,-4.13,8.37,-3.83,
18191,1661622391411,-0.9108,0.326,0.1115,-3.33,3.47,-2.02,
18192,1661622391411,-0.9845,0.6097,0.4645,-1.12,-0.68,-5.66,
18193,1661622391411,-0.8737,0.5579,0.114,6.07,-10.83,-5.11,
18194,1661622391411,-0.9347,0.5008,-0.3021,10.67,-0.68,-9.49,
18195,1661622391411,-0.8629,0.8787,0.5148,11.67,18.18,-7.85,
18196,1661622391411,-0.942,0.6273,0.1745,12.98,18.52,-10.49,
18197,1661622391411,-0.8151,0.8182,-0.2776,16.06,7.61,-13.32,
18198,1661622391411,-0.9415,0.7869,-0.0589,17.66,4.22,-9.49,
18199,1661622391411,-1.0939,0.679,0.4855,21.37,9.04,-7.94,
18200,1661622391411,-0.9928,0.9061,-0.1551,24.67,1.26,-13.32,
18201,1661622391411,-0.8449,0.5706,-0.2396,24.15,7.77,-9.86,
18202,1661622391427,-0.9415,0.9193,0.321,25.87,6.08,-9.4,
18203,1661622391427,-0.8912,0.7728,-0.0545,30.27,-0.94,-8.76,
18204,1661622391427,-0.923,0.6239,-0.1624,36.54,-1.87,-10.94,
18205,1661622391429,-0.8551,0.7645,-0.1565,45.14,-3.64,-10.13,
18206,1661622391429,-0.8297,0.5911,-0.0857,45.85,3.71,-8.12,
18207,1661622391429,-0.8287,0.515,-0.0257,47.34,3.64,-10.49,
18208,1661622391429,-0.8302,0.4246,-0.3357,47.95,-6.43,-10.85,
18209,1661622391429,-0.7824,0.2503,-0.2039,47.86,-11.68,-8.4,
18210,1661622391429,-0.8414,0.4295,0.0353,47.14,-12.35,-10.67,
18211,1661622391429,-0.7326,-0.0456,-0.3738,53.34,-10.66,-4.75,
18212,1661622391429,-0.7926,-0.0666,-0.2674,52.04,-9.65,-6.75,
18213,1661622391429,-0.8966,0.1048,0.4123,47.45,-12.61,-4.47,
18214,1661622391429,-0.7555,0.0111,0.3718,46.55,-15.98,-7.94,
18215,1661622391434,-0.8414,-0.0622,-0.4559,48.65,-21.23,-7.85,
18216,1661622391434,-0.7985,-0.1442,-0.0857,48.96,-1.35,-2.64,
18217,1661622391434,-1.067,-0.0817,0.4509,43.97,-3.81,-8.21,
18218,1661622391434,-0.8947,-0.2648,-0.5071,45.85,-23.77,-7.48,
18219,1661622391434,-1.0231,-0.3298,-0.0477,49.95,-10.16,-6.21,
18220,1661622391434,-1.0221,-0.071,0.53,41.25,-5.17,-10.39,
18221,1661622391434,-0.9723,-0.5016,-0.4075,35.36,-22.5,-8.85,
18222,1661622391434,-0.9943,-0.4333,0.1418,29.55,-17.34,-7.3,
18223,1661622391434,-1.0685,-0.3698,0.4675,30.86,-14.38,-2.92,
18224,1661622391434,-1.0812,-0.4953,-0.1448,28.86,-11.68,-0.74,
18225,1661622391434,-1.0997,-0.4406,0.0002,26.97,-12.61,-5.57,
18226,1661622391434,-1.0758,-0.5251,0.3371,18.36,-12.86,-3.56,
18227,1661622391434,-1.1818,-0.3708,0.4431,17.95,-15.05,-6.66,
18228,1661622391434,-1.1334,-0.465,-0.0735,17.07,-11.09,-4.57,
18229,1661622391434,-1.0328,-0.6891,0.0935,12.14,-7.62,-8.94,
18230,1661622391434,-1.1456,-0.3166,0.2189,5.27,-15.82,-7.21,
18231,1661622391434,-1.1183,-0.6374,-0.0525,6.77,-20.21,-4.38,
18232,1661622391434,-1.091,-0.548,0.3166,8.58,-3.14,-2.02,
18233,1661622391434,-1.1535,-0.3478,0.4089,-0.13,6.51,-6.75,
18234,1661622391434,-1.0675,-0.57,-0.0369,-6.83,-7.62,-4.93,
18235,1661622391434,-1.1735,-0.384,0.1735,-10.21,-10.16,-5.39,
18236,1661622391434,-1.112,-0.3508,0.592,-3.44,-5.59,-1.65,
18237,1661622391434,-1.2301,-0.3068,0.1862,-1.44,-1.61,-0.37,
18238,1661622391434,-1.2057,0.0628,0.4836,-6.13,11.07,-0.55,
18239,1661622391434,-1.2379,-0.2726,0.6042,-11.33,4.74,-4.29,
18240,1661622391434,-1.0656,0.1717,0.3098,-13.51,-3.64,-7.11,
18241,1661622391434,-1.0446,0.1419,0.4538,-7.53,3.97,-4.75,
18242,1661622391434,-1.1705,0.0379,0.4377,-5.23,8.37,-1.93,
18243,1661622391434,-1.112,0.4344,0.1393,-8.92,5.41,-4.84,
18244,1661622391434,-1.0944,0.3607,0.2556,-10.72,9.13,-3.28,
18245,1661622391434,-1.1071,0.5311,0.5266,-9.53,9.47,-4.38,
18246,1661622391434,-0.9845,0.5716,0.0358,-4.04,0.68,-0.92,
18247,1661622391434,-1.0338,0.4891,-0.077,-0.62,1.09,-6.12,
18248,1661622391434,-0.8927,0.7567,0.1306,1.18,2.19,-4.11,
18249,1661622391449,-0.84,0.6903,0.0764,5.76,7.36,-8.58,
18250,1661622391449,-0.8742,0.5936,-0.118,9.36,3.29,-7.21,
18251,1661622391449,-0.9938,0.6649,-0.0877,12.28,-1.7,-9.4,
18252,1661622391449,-0.9435,0.6278,0.1418,14.66,1.69,-7.48,
18253,1661622391449,-0.9445,0.5531,0.1066,15.05,1.94,-9.59,
18254,1661622391452,-0.9684,0.5999,-0.1063,17.77,7.1,-8.12,
18255,1661622391452,-0.8537,0.2928,0.1955,17.17,2.45,-8.67,
18256,1661622391452,-1.046,0.5233,0.5187,23.17,6.67,-6.84,
18257,1661622391452,-0.9879,0.5985,0.3703,26.07,-0.85,-8.3,
18258,1661622391454,-0.9284,0.3919,-0.1219,30.85,-5.93,-5.21,
18259,1661622391454,-0.8912,0.6732,0.4504,29.67,13.45,-5.66,
18260,1661622391454,-0.9679,0.5262,0.3161,32.07,19.54,-1.93,
18261,1661622391454,-0.7765,0.6654,-0.5516,35.56,10.4,-9.4,
18262,1661622391454,-0.7047,0.6766,-0.5149,40.64,-4.24,-5.76,
18263,1661622391454,-0.9235,0.5399,0.3439,46.24,-2.97,-8.94,
18264,1661622391454,-0.8571,0.6859,-0.2762,49.95,-18.01,-7.11,
18265,1661622391454,-0.7028,0.4154,-0.8148,46.36,-3.04,-3.74,
18266,1661622391454,-0.8161,0.7498,0.2116,40.17,4.98,-8.03,
18267,1661622391454,-0.7897,0.4466,-0.2728,43.16,-9.06,-8.21,
18268,1661622391454,-0.7111,0.242,-0.3528,50.87,-18.87,-5.48,
18269,1661622391454,-0.7496,0.3743,-0.1072,55.46,-15.15,-5.94,
18270,1661622391454,-0.879,0.2191,-0.1087,53.05,-8.03,-6.75,
18271,1661622391454,-0.8805,0.1805,-0.0823,53.95,-3.81,-5.76,
18272,1661622391454,-0.8668,-0.008,-0.0174,49.05,-6.6,-4.57,
18273,1661622391454,-0.8673,-0.3537,-0.3592,47.97,-15.57,-12.96,
18274,1661622391454,-0.9996,-0.1359,-0.0232,44.84,-10.83,-8.03,
18275,1661622391454,-0.9943,-0.4699,0.2014,45.75,-12.43,-5.94,
18276,1661622391454,-0.963,-0.651,-0.3846,42.46,-24.7,-1.01,
18277,1661622391454,-1.111,-0.5705,0.1838,39.96,-14.21,-4.93,
18278,1661622391454,-1.0758,-0.653,0.6203,28.36,-9.9,-2.92,
18279,1661622391454,-1.0338,-0.547,-0.1277,28.57,-19.97,-10.13,
18280,1661622391454,-1.0446,-0.7365,0.0681,27.96,-22.76,-3.65,
18281,1661622391454,-1.1115,-0.3942,0.5959,24.27,-5.84,-5.76,
18282,1661622391454,-1.0646,-0.4181,0.342,23.05,-16.75,-2.11,
18283,1661622391454,-1.2033,-0.5612,-0.0374,21.05,-14.98,-7.39,
18284,1661622391454,-1.1578,-0.2087,0.3322,13.67,-18.87,-9.68,
18285,1661622391454,-1.0485,-0.4528,0.2795,10.34,-10.66,-5.76,
18286,1661622391454,-0.9943,-0.2677,0.2336,8.35,-0.68,-5.85,
18287,1661622391454,-0.9606,-0.298,-0.16,8.46,-12.09,-6.4,
18288,1661622391454,-1.1168,-0.4704,0.2473,4.57,-12.02,-4.66,
18289,1661622391454,-1.1823,-0.1501,0.4709,0.68,-12.02,-5.48,
18290,1661622391454,-1.0914,-0.4411,-0.055,-4.22,-5.33,-0.64,
18291,1661622391454,-1.0543,-0.3669,-0.115,-4.22,4.4,-6.21,
18292,1661622391469,-1.1837,-0.1847,0.4362,-6.61,8.63,-2.64,
18293,1661622391469,-1.2282,-0.3854,0.6457,-6.43,-2.97,-5.21,
18294,1661622391469,-1.1954,-0.1774,0.1247,-9.64,-10.66,-5.02,
18295,1661622391469,-1.1911,-0.2692,0.3146,-8.41,-0.59,-4.84,
18296,1661622391469,-1.2482,-0.1115,0.7238,-10.23,10.73,-6.21,
18297,1661622391469,-1.2013,0.034,0.3166,-9.33,12.85,-5.66,
18298,1661622391469,-1.026,-0.1759,0.131,-10.43,3.71,-4.93,
18299,1661622391469,-1.1417,0.1087,0.4929,-11.51,-1.35,-3.92,
18300,1661622391469,-1.1012,0.2552,0.6096,-6.22,-5.59,-0.09,
18301,1661622391469,-1.089,0.2381,0.0246,-2.42,-0.01,-2.55,
18302,1661622391469,-0.9953,0.6014,0.3366,-1.33,14.79,-2.2,
18303,1661622391469,-1.0709,0.4339,0.2785,-1.33,19.61,-0.83,
18304,1661622391469,-0.8468,0.7347,0.0388,-0.54,9.56,-4.84,
18305,1661622391469,-0.841,0.6883,0.0114,0.36,-0.34,-5.11,
18306,1661622391469,-0.9347,0.6566,0.1721,5.76,0.42,-3.19,
18307,1661622391469,-0.839,0.9442,-0.0872,7.96,-6.1,-10.04,
18308,1661622391469,-0.8068,0.6986,-0.074,13.76,5.41,-10.49,
18309,1661622391469,-0.8595,0.8499,0.152,12.76,13.28,-13.78,
18310,1661622391469,-0.9787,0.9178,0.0021,13.95,5.5,-11.31,
18311,1661622391469,-0.9953,0.6815,0.0832,16.67,2.54,-12.32,
18312,1661622391469,-0.9371,0.7752,0.1603,22.77,-1.18,-12.41,
18313,1661622391469,-0.8512,0.7166,0.0334,26.67,5.07,-11.13,
18314,1661622391469,-0.8566,0.6976,0.0031,27.95,8.11,-12.5,
18315,1661622391469,-0.9196,0.5721,-0.1746,29.35,6.67,-7.66,
18316,1661622391469,-0.8942,0.4476,-0.1536,34.55,8.03,-9.04,
18317,1661622391469,-0.8244,0.5321,-0.0184,38.46,2.62,-8.76,
18318,1661622391469,-0.9201,0.5477,-0.1004,42.95,-6.17,-5.48,
18319,1661622391469,-0.7794,0.1536,-0.4261,46.15,-19.97,-6.21,
18320,1661622391469,-0.8556,0.4481,0.0104,46.17,-11.25,-4.38,
18321,1661622391469,-0.735,0.2508,0.2394,52.56,-3.73,-7.48,
18322,1661622391469,-0.8634,0.1688,-0.3221,45.05,-6.26,-4.2,
18323,1661622391469,-0.8048,0.2,-0.3982,43.65,-13.45,-8.12,
18324,1661622391469,-0.6837,0.2161,0.298,44.15,-8.37,-7.3,
18325,1661622391469,-0.757,0.2835,0.216,51.16,-6.94,-10.67,
18326,1661622391469,-0.7145,-0.0168,-0.678,52.64,-7.96,-5.85,
18327,1661622391485,-0.8561,0.1849,-0.014,44.96,-4.4,-10.49,
18328,1661622391485,-0.9113,0.2279,0.1477,45.66,-13.19,-6.56,
18329,1661622391485,-0.8424,-0.1081,-0.6605,49.54,-19.2,-7.48,
18330,1661622391485,-0.8937,-0.008,-0.3353,45.36,-15.22,-7.21,
18331,1661622391485,-1.0255,-0.0822,0.4992,38.06,-9.56,-8.94,
18332,1661622391485,-1.1437,-0.1662,0.3522,41.45,-23.26,-9.4,
18333,1661622391485,-1.006,-0.3752,-0.4891,45.25,-21.32,-3.92,
18334,1661622391485,-1.0651,-0.4411,0.2219,33.56,-1.95,-6.47,
18335,1661622391485,-1.1749,-0.3761,0.7023,25.05,-8.97,-7.48,
18336,1661622391485,-1.0875,-0.6584,-0.0359,29.35,-21.9,-7.48,
18337,1661622391485,-1.0328,-0.634,0.0554,30.07,-18.36,-4.02,
18338,1661622391485,-1.1769,-0.506,0.4406,21.05,-5.67,-3.01,
18339,1661622391485,-1.0412,-0.7267,0.1384,18.06,-6.51,-2.64,
18340,1661622391485,-1.1696,-0.5978,-0.014,14.86,-17.25,-6.93,
18341,1661622391485,-1.0807,-0.6764,0.239,14.98,-25.8,-5.39,
18342,1661622391485,-1.2794,-0.5177,0.424,6.66,-17.68,-3.83,
18343,1661622391485,-1.1115,-0.3669,0.4475,3.18,-0.34,-7.02,
18344,1661622391485,-0.8991,-0.5495,0.155,4.59,-3.38,-4.02,
18345,1661622391485,-1.0885,-0.4299,0.1242,5.27,-8.2,-5.76,
18346,1661622391485,-1.0739,-0.4167,0.4768,-0.04,-10.06,-3.83,
18347,1661622391485,-1.1906,-0.3117,0.3229,-4.94,3.38,-8.67,
18348,1661622391485,-1.1442,-0.1925,0.0153,-8.43,2.37,-7.11,
18349,1661622391485,-1.1447,-0.2926,0.1413,-8.73,3.71,-8.94,
18350,1661622391485,-1.2282,-0.1174,0.739,-9.01,1.69,-10.32,
18351,1661622391485,-1.1891,0.0076,0.3713,-9.62,-3.3,-11.4,
18352,1661622391485,-1.1876,-0.1066,-0.0335,-12.21,-7.27,-3.74,
18353,1661622391485,-1.1769,0.1893,0.6281,-12.72,4.14,-12.32,
18354,1661622391485,-1.2238,0.1073,0.8,-13.13,14.88,-4.75,
18355,1661622391485,-1.1632,0.2948,0.0773,-9.44,8.87,-11.04,
18356,1661622391485,-1.0695,0.3118,0.3156,-8.11,9.04,-5.94,
18357,1661622391485,-1.091,0.242,0.5886,-3.82,11.42,-13.42,
18358,1661622391485,-1.07,0.4388,0.2116,-1.72,5.41,-13.32,
18359,1661622391501,-0.9811,0.2952,-0.3953,-1.65,0.75,-10.49,
18360,1661622391501,-0.9113,0.5643,0.3112,-1.21,11.5,-11.86,
18361,1661622391501,-0.9791,0.6287,0.236,1.58,8.46,-10.85,
18362,1661622391501,-0.8141,0.2508,-0.5062,6.57,0.33,-9.04,
18363,1661622391501,-0.858,0.4969,-0.1492,6.97,1.61,-9.4,
18364,1661622391501,-0.9186,0.7205,0.6491,13.36,4.4,-7.75,
18365,1661622391501,-0.8995,0.4979,-0.1019,15.36,-5.0,-9.59,
18366,1661622391501,-0.8195,0.7254,-0.0145,17.68,3.97,-10.85,
18367,1661622391501,-1.0836,0.619,0.7648,16.67,13.53,-7.85,
18368,1661622391501,-1.1417,0.6551,0.5183,18.17,8.63,-10.39,
18369,1661622391501,-0.8771,0.6678,-0.3504,21.68,2.37,-11.49,
18370,1661622391501,-0.9157,0.7269,0.4172,25.05,19.2,-8.58,
18371,1661622391501,-0.9186,0.8372,-0.0359,29.37,2.88,-11.49,
18372,1661622391501,-0.7843,0.6092,-0.5589,35.76,0.51,-3.65,
18373,1661622391501,-0.8561,0.8065,0.3703,35.16,12.6,-8.58,
18374,1661622391501,-0.9249,0.8494,0.1154,38.46,-5.59,-8.49,
18375,1661622391501,-0.84,0.5887,-0.6522,39.86,-12.69,-4.57,
18376,1661622391501,-0.8688,0.6956,0.1477,42.46,-4.66,-9.86,
18377,1661622391501,-0.7887,0.5208,-0.0276,45.75,-6.94,-9.95,
18378,1661622391501,-0.7482,0.4779,-0.5726,48.55,-8.37,-11.86,
18379,1661622391501,-0.7643,0.4466,0.1144,48.17,0.75,-8.58,
18380,1661622391501,-0.7531,0.0448,-0.0648,49.97,-0.42,-11.4,
18381,1661622391501,-0.7819,-0.0148,-0.409,49.45,-14.98,-9.4,
18382,1661622391501,-0.8717,0.0726,-0.2161,50.65,-14.21,-10.49,
18383,1661622391501,-0.7921,-0.0871,0.09,49.74,-12.61,-10.67,
18384,1661622391501,-0.8585,-0.068,-0.327,47.45,-11.76,-7.85,
18385,1661622391501,-0.8073,-0.3713,-0.243,42.64,-13.28,-8.4,
18386,1661622391501,-0.9415,-0.3166,0.2141,42.64,-13.71,-7.48,
18387,1661622391501,-0.9259,-0.3781,0.0646,48.85,-15.65,-10.94,
18388,1661622391501,-1.0563,-0.4235,-0.0652,41.07,-12.35,-2.11,
18389,1661622391501,-1.0221,-0.3869,0.1066,36.26,-11.33,-8.4,
18390,1661622391501,-1.1246,-0.5514,0.3459,33.75,-8.46,-2.38,
18391,1661622391501,-1.0368,-0.3683,0.1433,31.87,-17.6,-7.39,
18392,1661622391501,-0.9518,-0.4928,-0.1199,26.07,-20.73,-2.38,
18393,1661622391516,-1.0221,-0.3732,0.3185,24.45,-5.5,-4.57,
18394,1661622391516,-1.0675,-0.467,0.0173,24.47,-11.51,-5.85,
18395,1661622391516,-1.0455,-0.5446,-0.1336,16.78,-14.72,-7.11,
18396,1661622391516,-1.0592,-0.2399,0.2897,12.28,-12.78,-11.13,
18397,1661622391516,-1.0421,-0.3508,0.2971,12.58,-15.82,-7.21,
18398,1661622391516,-1.0607,-0.444,0.0153,9.87,-13.19,-10.85,
18399,1661622391516,-1.0407,-0.3717,0.1828,5.78,-5.17,-10.94,
18400,1661622391516,-1.1403,-0.5592,0.3937,6.66,-6.94,-11.77,
18401,1661622391516,-1.1676,-0.405,0.1633,-1.23,-15.31,-12.5,
18402,1661622391516,-1.1115,-0.5402,0.1271,-3.52,-11.93,-8.4,
18403,1661622391516,-1.1613,-0.4064,0.4616,-7.01,2.11,-2.83,
18404,1661622391516,-1.2409,-0.3107,0.3249,-9.21,8.46,-3.19,
18405,1661622391516,-1.0846,-0.5285,0.1242,-9.21,-1.52,-3.83,
18406,1661622391516,-1.1925,-0.3654,0.3742,-12.52,-5.5,-1.28,
18407,1661622391516,-1.2487,-0.1164,0.8537,-9.83,-5.0,-2.55,
18408,1661622391516,-1.2907,-0.2326,0.0866,-9.44,-7.1,4.74,
18409,1661622391516,-1.0538,0.0609,0.4484,-12.32,7.87,-4.29,
18410,1661622391516,-1.2477,0.0882,0.988,-11.51,13.28,1.28,
18411,1661622391516,-1.0626,0.306,0.0793,-8.93,8.8,-2.11,
18412,1661622391516,-1.0114,0.2933,-0.1546,-6.72,0.92,-1.01,
18413,1661622391516,-1.1315,0.3143,0.6433,-7.93,13.02,-3.38,
18414,1661622391516,-1.1627,0.6663,0.4435,-6.61,2.28,-6.56,
18415,1661622391516,-1.0138,0.4627,-0.3499,-6.81,1.35,-4.66,
18416,1661622391516,-0.9303,0.6473,0.2707,-3.93,13.69,-7.57,
18417,1661622391516,-0.9791,0.8035,0.4182,-0.53,9.56,-5.94,
18418,1661622391516,-0.9464,0.7323,-0.0149,2.97,1.85,-8.03,
18419,1661622391516,-0.8414,0.7752,-0.202,6.98,1.01,-13.32,
18420,1661622391516,-0.8751,0.8192,0.2492,9.96,6.43,-11.58,
18421,1661622391516,-0.9435,0.7689,0.1501,13.97,6.93,-15.14,
18422,1661622391516,-0.9943,0.6873,-0.1585,18.56,-1.95,-9.59,
18423,1661622391516,-0.943,0.4808,-0.1302,23.67,4.14,-10.67,
18424,1661622391516,-1.0016,0.5911,0.4445,22.16,13.69,-8.12,
18425,1661622391516,-1.0455,0.6502,0.0368,19.25,7.44,-10.39,
18426,1661622391516,-0.7955,0.3245,-0.2679,24.77,4.05,-6.03,
18427,1661622391516,-0.9254,0.4925,0.3044,29.26,0.08,-6.4,
18428,1661622391532,-1.0211,0.5145,0.3776,32.66,-1.18,-8.67,
18429,1661622391532,-0.9567,0.3724,-0.0413,38.66,-1.95,-4.84,
18430,1661622391532,-0.8346,0.4315,-0.1912,39.86,1.26,-5.11,
18431,1661622391532,-0.8253,0.6136,0.2912,40.57,5.15,-4.93,
18432,1661622391532,-0.8961,0.5667,0.027,40.96,-6.86,-6.84,
18433,1661622391532,-0.8341,0.4281,-0.3182,40.66,-10.4,-4.93,
18434,1661622391532,-0.7531,0.408,-0.2073,42.37,-1.87,-5.02,
18435,1661622391532,-0.7785,0.6986,-0.0179,47.65,-3.38,-8.58,
18436,1661622391532,-0.6745,0.3841,-0.3943,48.24,-3.04,-6.12,
18437,1661622391532,-0.6745,0.3265,-0.0638,45.07,-1.95,-7.75,
18438,1661622391532,-0.7828,0.2728,-0.4378,45.97,-20.56,-9.13,
18439,1661622391532,-0.8942,0.2655,-0.327,50.35,-19.04,-9.68,
18440,1661622391532,-0.8502,0.2039,0.2043,48.96,-5.59,-11.95,
18441,1661622391532,-0.8224,-0.1086,-0.4046,44.85,-17.25,-14.22,
18442,1661622391532,-0.9235,-0.0685,-0.097,47.14,-12.09,-16.15,
18443,1661622391532,-0.9533,-0.3219,0.4553,48.44,-2.71,-23.72,
18444,1661622391532,-1.0289,-0.4411,0.176,41.76,-14.21,-13.23,
18445,1661622391532,-0.9923,-0.3932,-0.4246,38.06,-21.57,-11.4,
18446,1661622391532,-1.0348,-0.5768,0.2365,38.64,-0.51,-3.28,
18447,1661622391532,-0.9953,-0.6281,0.3996,32.16,-5.24,-9.22,
18448,1661622391532,-1.0363,-0.6676,-0.2845,28.77,-17.17,2.18,
18449,1661622391532,-1.0543,-0.8254,0.0212,24.77,-22.16,-9.49,
18450,1661622391532,-1.1412,-0.6369,0.6267,22.96,-14.55,-0.55,
18451,1661622391532,-0.9635,-0.6613,0.1218,19.88,-19.71,-6.56,
18452,1661622391532,-1.0836,-0.5251,-0.0887,14.06,-17.6,-1.01,
18453,1661622391532,-1.0436,-0.5949,0.6257,12.98,-9.99,-9.04,
18454,1661622391532,-1.195,-0.3605,0.5876,10.66,-8.89,-5.66,
18455,1661622391532,-1.0841,-0.2546,0.1945,8.48,-11.93,-13.69,
18456,1661622391532,-0.9367,-0.4806,-0.1629,4.85,-9.3,-5.94,
18457,1661622391532,-1.0748,-0.3395,0.4221,-1.53,-2.21,-15.51,
18458,1661622391532,-1.1061,-0.238,0.2458,-1.93,-4.91,-3.65,
18459,1661622391547,-1.1593,-0.3625,-0.0057,-4.62,-7.79,-7.02,
18460,1661622391547,-1.1745,-0.1823,0.194,-8.72,-15.15,-1.74,
18461,1661622391547,-1.2008,-0.2419,0.5168,-7.51,-3.64,-8.94,
18462,1661622391547,-1.2169,0.0037,0.4924,-9.02,5.41,-4.29,
18463,1661622391547,-1.1505,-0.0661,0.2155,-10.11,6.17,-6.21,
18464,1661622391547,-1.1935,-0.2575,0.2653,-13.01,2.11,-4.11,
18465,1661622391547,-1.2872,0.1185,0.822,-12.03,0.85,-9.68,
18466,1661622391547,-1.1574,-0.0798,0.5017,-8.83,5.15,-4.75,
18467,1661622391547,-1.0895,0.0223,0.1076,-8.23,8.63,1.0,
18468,1661622391552,-1.1539,0.3289,0.5466,-8.34,19.95,-7.02,
18469,1661622391552,-1.0768,0.1527,0.4606,-10.23,13.62,0.82,
18470,1661622391552,-1.0524,0.1932,0.048,-11.33,7.53,-6.66,
18471,1661622391552,-1.069,0.4476,0.2604,-3.23,-4.07,-4.93,
18472,1661622391552,-1.0416,0.3504,0.1916,-1.12,-9.39,-7.21,
18473,1661622391552,-0.9581,0.6092,0.2717,4.46,2.54,-8.21,
18474,1661622391552,-0.8561,0.4876,0.2111,3.47,8.03,1.35,
18475,1661622391552,-1.0172,0.6204,0.1008,5.46,14.03,-4.93,
18476,1661622391552,-0.8229,0.8006,0.0832,6.16,13.19,-5.94,
18477,1661622391552,-0.9616,0.599,0.2009,8.46,14.79,-2.02,
18478,1661622391552,-0.8991,0.6908,0.2067,13.67,9.04,-9.49,
18479,1661622391552,-0.9801,0.7694,-0.1453,17.68,-1.44,-10.04,
18480,1661622391552,-1.0778,0.6248,0.0314,19.75,5.74,-7.48,
18481,1661622391552,-1.0504,0.8714,0.1975,19.48,2.54,-8.49,
18482,1661622391552,-0.901,0.6302,-0.1487,19.07,4.4,-8.12,
18483,1661622391552,-0.9503,0.8114,0.0393,21.25,7.01,-10.39,
18484,1661622391552,-0.9552,0.8094,0.0827,29.55,7.27,-6.75,
18485,1661622391552,-0.9352,0.5838,0.0519,37.55,2.45,-8.94,
18486,1661622391552,-0.9235,0.6561,-0.2073,39.27,-1.78,-11.49,
18487,1661622391552,-0.8971,0.453,-0.1951,39.76,-1.95,-16.51,
18488,1661622391552,-0.8283,0.4759,-0.0257,40.05,3.29,-12.32,
18489,1661622391552,-0.8659,0.4657,-0.2576,46.35,1.78,-8.76,
18490,1661622391552,-0.8278,0.2987,-0.3592,48.17,-8.97,-5.11,
18491,1661622391552,-0.7872,0.2396,-0.0633,43.66,-15.22,-16.42,
18492,1661622391552,-0.8527,0.1434,-0.1019,50.04,-23.86,-11.22,
18493,1661622391552,-0.7189,-0.0383,-0.2835,53.55,-9.99,-11.22,
18494,1661622391552,-0.7536,0.1981,0.2473,43.86,0.08,6.56,
18495,1661622391552,-0.7658,0.036,0.1164,39.86,-6.69,-4.38,
18496,1661622391552,-0.8419,-0.0182,-0.3997,42.17,-18.01,-8.67,
18497,1661622391552,-0.8165,-0.0534,0.0964,49.45,-10.92,-0.28,
18498,1661622391552,-1.0026,-0.0187,0.217,49.75,0.59,-2.48,
18499,1661622391552,-0.8029,0.0008,-0.2293,41.86,-13.36,-1.93,
18500,1661622391552,-0.8175,-0.2428,-0.469,37.76,-14.81,-6.03,
18501,1661622391552,-1.0265,-0.1476,0.4914,41.27,-11.68,-4.75,
18502,1661622391552,-1.0973,-0.2653,-0.139,37.96,-26.06,-2.55,
18503,1661622391567,-1.0929,-0.488,-0.2747,29.56,-18.18,-8.85,
18504,1661622391567,-1.0465,-0.3478,0.509,28.47,-11.33,-9.13,
18505,1661622391567,-1.1051,-0.5109,0.1603,31.47,-14.81,-11.22,
18506,1661622391567,-1.0495,-0.4723,-0.0706,26.57,-10.66,-5.94,
18507,1661622391567,-1.0836,-0.5915,0.364,19.17,-7.36,-11.77,
18508,1661622391567,-1.0997,-0.5187,0.4387,14.26,-11.16,-8.85,
18509,1661622391567,-1.1124,-0.5705,-0.119,16.38,-17.17,-7.11,
18510,1661622391567,-0.9855,-0.6994,0.0602,11.16,-10.32,-5.39,
18511,1661622391567,-1.1915,-0.3669,0.3791,2.88,-13.95,-8.76,
18512,1661622391567,-1.1662,-0.4435,0.2702,5.07,-23.35,-6.56,
18513,1661622391567,-1.0045,-0.797,-0.0706,5.38,-22.5,-7.66,
18514,1661622391567,-1.1437,-0.3459,0.5729,2.68,8.29,-3.1,
18515,1661622391567,-1.0626,-0.4884,0.3771,-4.04,5.74,-5.48,
18516,1661622391567,-1.1041,-0.4147,-0.0037,-6.22,1.52,-3.56,
18517,1661622391567,-1.1286,-0.4279,0.7438,-10.81,-3.47,-3.1,
18518,1661622391567,-1.3322,-0.3166,0.4826,-9.19,-12.61,-5.48,
18519,1661622391567,-1.1901,-0.0324,0.1603,-4.23,-0.59,-3.74,
18520,1661622391567,-1.1476,-0.1501,0.384,-12.43,15.56,0.91,
18521,1661622391567,-1.2033,-0.0275,0.6813,-18.42,8.46,-4.57,
18522,1661622391567,-1.111,0.1546,0.0729,-9.7,-4.91,-3.38,
18523,1661622391567,-1.1447,-0.0046,0.2575,-5.93,-3.04,-5.11,
18524,1661622391567,-1.1828,0.4251,0.5266,-8.32,2.95,-6.12,
18525,1661622391567,-1.1246,0.2913,0.1501,-6.92,3.29,-8.58,
18526,1661622391567,-1.132,0.2884,0.1711,-8.02,16.58,-7.02,
18527,1661622391567,-1.0436,0.5765,0.3278,-6.63,15.39,-5.3,
18528,1661622391567,-1.0538,0.367,0.0598,-2.31,4.98,-6.66,
18529,1661622391567,-0.9894,0.6146,0.0305,1.58,3.55,-4.02,
18530,1661622391567,-0.9254,0.5614,0.1481,4.57,5.15,-4.57,
18531,1661622391567,-0.8786,0.3407,0.0436,5.58,1.01,-5.66,
18532,1661622391567,-1.0245,0.6082,0.0026,6.48,0.75,-9.86,
18533,1661622391567,-0.9645,0.6385,0.1135,7.58,1.26,-11.4,
18534,1661622391567,-0.9537,0.4632,-0.0335,10.16,-0.85,-9.04,
18535,1661622391583,-0.9537,0.5379,-0.0584,14.96,1.69,-8.4,
18536,1661622391583,-0.8995,0.4183,0.1779,20.15,3.38,-2.02,
18537,1661622391583,-1.1544,0.5741,0.5612,19.95,13.95,-5.48,
18538,1661622391583,-0.9113,0.5784,0.0422,20.87,1.94,-3.83,
18539,1661622391583,-0.9787,0.5999,0.1467,23.46,4.4,-8.67,
18540,1661622391583,-0.9137,0.7044,0.3937,25.17,4.05,-5.57,
18541,1661622391583,-0.8532,0.513,0.0202,29.35,-1.87,-4.57,
18542,1661622391583,-0.8898,0.6243,-0.0589,33.67,12.26,-1.47,
18543,1661622391583,-0.8517,0.7664,-0.1688,36.35,8.46,-3.19,
18544,1661622391583,-0.9098,0.6473,-0.284,38.84,1.44,-1.56,
18545,1661622391583,-0.8082,0.72,-0.1634,41.36,-7.44,-3.28,
18546,1661622391583,-0.8121,0.5941,-0.2171,43.25,-15.74,-2.38,
18547,1661622391583,-0.7453,0.5584,-0.3563,45.97,-7.87,-4.93,
18548,1661622391583,-0.7682,0.6361,-0.2586,46.75,-5.0,-6.93,
18549,1661622391583,-0.7399,0.4207,0.0847,47.45,1.18,-8.3,
18550,1661622391583,-0.7955,0.2533,-0.2366,48.15,-18.18,-12.32,
18551,1661622391583,-0.8541,0.0867,-0.2815,49.05,-19.97,-11.68,
18552,1661622391583,-0.8405,0.1795,0.2551,48.94,-2.45,-12.13,
18553,1661622391583,-0.8605,-0.0129,-0.1063,46.04,-2.11,-9.59,
18554,1661622391583,-0.8048,-0.2267,-0.3499,40.37,-17.01,-10.13,
18555,1661622391583,-0.9069,-0.3796,-0.1087,44.35,-19.2,-16.51,
18556,1661622391583,-1.07,-0.3688,0.2819,46.26,-9.9,-2.55,
18557,1661622391583,-0.923,-0.59,-0.2703,36.95,-16.75,-10.32,
18558,1661622391583,-1.0011,-0.4963,0.0373,34.65,-10.92,-8.58,
18559,1661622391583,-0.9367,-0.6491,0.4836,35.74,-12.18,-8.76,
18560,1661622391583,-1.1027,-0.6442,0.0734,29.96,-15.48,-1.1,
18561,1661622391583,-1.0045,-0.6857,0.0515,23.26,-18.18,-5.85,
18562,1661622391583,-1.1852,-0.4655,0.444,20.06,-11.51,-6.66,
18563,1661622391583,-1.0714,-0.4592,0.1926,21.97,-14.29,-8.94,
18564,1661622391583,-1.1969,-0.6515,0.0251,20.38,-7.79,-1.19,
18565,1661622391583,-1.09,-0.2897,0.3459,11.25,-5.84,-5.48,
18566,1661622391583,-1.048,-0.3014,0.2502,8.58,-11.42,-4.75,
18567,1661622391583,-1.1149,-0.3688,0.1662,12.15,-13.28,-8.4,
18568,1661622391583,-1.0397,-0.3312,-0.0638,13.38,-15.31,-9.04,
18569,1661622391598,-1.0661,-0.5153,0.1809,3.06,-5.33,-10.94,
18570,1661622391598,-1.1881,-0.2463,0.4226,-0.53,-7.79,-11.04,
18571,1661622391598,-1.0846,-0.381,0.1154,-0.83,-11.59,-8.94,
18572,1661622391598,-1.0426,-0.3942,0.1926,-5.01,-3.81,-6.93,
18573,1661622391598,-1.1847,-0.276,0.4665,-8.12,4.14,-5.85,
18574,1661622391598,-1.1403,-0.6003,0.2888,-8.81,7.01,-5.21,
18575,1661622391598,-1.0709,-0.4367,0.237,-10.81,3.29,-10.49,
18576,1661622391598,-1.2057,-0.0885,0.4719,-11.53,-1.18,-10.23,
18577,1661622391598,-1.1535,-0.3156,0.3825,-7.22,-3.3,-1.65,
18578,1661622391598,-1.2306,-0.1066,0.446,-13.91,10.99,-3.38,
18579,1661622391598,-0.9816,-0.1095,0.403,-11.13,10.73,5.02,
18580,1661622391598,-1.1696,0.139,0.2526,-9.91,1.94,-2.64,
18581,1661622391598,-1.0382,0.1405,0.4602,-7.93,1.78,-2.64,
18582,1661622391598,-1.2423,0.2567,0.4968,-6.54,-0.25,-3.38,
18583,1661622391598,-1.0119,0.4608,0.2697,-5.91,2.54,-1.65,
18584,1661622391598,-0.9215,0.431,-0.0491,-5.01,7.1,-5.48,
18585,1661622391598,-0.9464,0.5575,0.5881,-2.54,27.32,-7.02,
18586,1661622391598,-0.9367,0.6385,0.0515,-0.92,5.58,-5.48,
18587,1661622391598,-0.9113,0.5399,-0.3226,3.78,-3.21,-8.67,
18588,1661622391598,-0.8136,0.6605,0.0422,6.07,-2.45,-9.77,
18589,1661622391598,-0.9328,0.8739,0.4182,9.67,0.92,-7.48,
18590,1661622391598,-0.8854,0.741,-0.0906,11.18,-0.34,-8.12,
18591,1661622391598,-0.9074,0.6771,-0.2127,10.87,-3.14,-9.22,
18592,1661622391598,-1.0607,0.6283,0.5197,14.86,9.8,-11.13,
18593,1661622391598,-1.068,0.7064,0.506,22.27,5.74,-11.58,
18594,1661622391598,-0.963,0.6634,-0.2562,24.56,3.97,-10.13,
18595,1661622391598,-0.8869,0.5838,0.0935,22.47,8.7,-13.96,
18596,1661622391598,-0.9943,0.555,0.256,22.76,4.65,-11.13,
18597,1661622391598,-0.9362,0.4281,-0.2386,30.66,-4.14,-12.04,
18598,1661622391598,-0.8263,0.4735,0.0856,36.35,7.27,-7.21,
18599,1661622391598,-0.942,0.5174,0.1184,38.96,4.22,-11.77,
18600,1661622391598,-0.8375,0.3617,-0.3118,40.75,-7.2,-9.59,
18601,1661622391598,-0.8712,0.3934,0.0222,37.76,-13.62,-13.69,
18602,1661622391598,-0.7662,0.327,0.2844,40.66,-15.65,-9.59,
18603,1661622391598,-0.8727,0.3524,-0.3323,46.94,-8.89,-6.12,
18604,1661622391614,-0.7858,0.3211,-0.2,47.25,1.44,-5.66,
18605,1661622391614,-0.6862,0.39,0.384,44.24,10.9,-9.22,
18606,1661622391614,-0.7955,0.4202,0.3127,45.16,-2.8,-11.04,
18607,1661622391614,-0.7892,0.221,-0.5897,46.76,-19.54,-8.94,
18608,1661622391614,-0.8141,0.159,-0.3431,48.55,-13.02,-7.94,
18609,1661622391614,-0.8673,0.3524,0.3156,47.54,-7.62,-8.85,
18610,1661622391614,-0.8244,0.1722,-0.3226,43.66,-13.62,-7.57,
18611,1661622391614,-0.7882,-0.0182,-0.5115,41.34,-18.44,-8.49,
18612,1661622391614,-0.9088,-0.1091,0.3439,45.74,-9.13,-16.51,
18613,1661622391614,-1.1647,-0.1252,0.2004,41.34,-12.35,-19.61,
18614,1661622391614,-1.0221,-0.4196,-0.5374,32.97,-21.66,-14.5,
18615,1661622391614,-0.9752,-0.548,0.2609,38.06,-6.43,-14.41,
18616,1661622391614,-1.1476,-0.4191,0.5876,33.46,0.51,-12.59,
18617,1661622391614,-1.1784,-0.5466,0.0925,29.55,-10.06,-11.58,
18618,1661622391614,-1.0241,-0.9181,-0.3187,25.48,-24.45,-8.4,
18619,1661622391614,-1.153,-0.5812,0.467,22.45,-20.39,-11.31,
18620,1661622391614,-1.1447,-0.6759,0.2839,20.46,-16.15,-7.39,
18621,1661622391614,-1.0358,-0.8122,-0.2537,13.36,-10.4,-4.47,
18622,1661622391614,-1.025,-0.6144,0.4655,6.98,-12.78,-5.66,
18623,1661622391614,-1.192,-0.6042,0.4602,9.07,-24.86,-8.94,
18624,1661622391614,-1.0221,-0.4743,0.2619,12.05,-9.56,-4.75,
18625,1661622391614,-0.9352,-0.5754,0.3117,9.77,2.62,-7.11,
18626,1661622391614,-1.0719,-0.3786,0.0583,4.86,4.65,-6.56,
18627,1661622391614,-1.1051,-0.3508,0.1223,-1.84,1.35,-3.01,
18628,1661622391614,-1.1403,-0.4528,0.631,-5.53,0.85,-5.94,
18629,1661622391614,-1.0631,-0.2448,0.1169,-6.74,-12.52,-8.58,
18630,1661622391614,-1.0534,-0.3254,-0.2557,-5.23,-14.89,-4.66,
18631,1661622391614,-1.1764,-0.1794,1.071,-11.44,8.96,-7.48,
18632,1661622391614,-1.1759,-0.0505,0.4782,-12.34,6.08,-5.02,
18633,1661622391614,-1.1388,-0.1945,-0.2815,-10.34,-6.1,-8.21,
18634,1661622391614,-1.2755,0.0892,0.9851,-15.31,0.92,-5.39,
18635,1661622391614,-1.2726,0.1468,1.3268,-15.22,11.07,-10.04,
18636,1661622391614,-1.15,0.0277,0.1838,-10.41,12.0,-0.37,
18637,1661622391630,-1.0665,0.1497,-0.1292,-9.93,19.54,-5.39,
18638,1661622391630,-1.0885,0.2274,0.9382,-7.22,19.37,-6.21,
18639,1661622391630,-1.1061,0.3118,0.0266,-4.72,4.57,-8.4,
18640,1661622391630,-0.9728,0.3353,-0.4461,-3.01,-6.17,-10.39,
18641,1661622391630,-1.0289,0.4647,0.656,-2.52,4.31,-3.92,
18642,1661622391630,-1.1793,0.5296,0.6882,0.79,0.92,-9.4,
18643,1661622391630,-0.86,0.3675,-0.3211,2.59,-6.34,-6.75,
18644,1661622391630,-0.8683,0.6053,0.0842,4.78,3.64,-5.76,
18645,1661622391630,-0.8849,0.6595,0.6457,8.16,14.96,-4.66,
18646,1661622391630,-0.9044,0.6185,0.3327,13.48,5.24,-7.39,
18647,1661622391630,-0.8766,0.5936,-0.0335,16.06,6.67,-7.39,
18648,1661622391630,-0.86,0.5921,0.4108,16.08,9.89,-5.48,
18649,1661622391630,-1.0495,0.7655,0.2922,14.87,6.93,-9.04,
18650,1661622391630,-0.9435,0.7108,-0.1605,19.54,3.38,-1.28,
18651,1661622391630,-0.8419,0.6683,-0.0823,20.67,8.29,-5.02,
18652,1661622391630,-0.88,0.7606,0.0534,20.76,6.17,-6.21,
18653,1661622391630,-1.0255,0.8001,-0.2195,27.47,-1.95,-7.11,
18654,1661622391630,-0.9811,0.7469,0.0842,34.25,1.69,-9.95,
18655,1661622391630,-0.8458,0.7845,-0.2689,38.35,-6.01,-7.94,
18656,1661622391630,-0.757,0.682,-0.4578,40.43,-4.57,-11.04,
18657,1661622391630,-0.882,0.7064,-0.0164,41.16,8.2,-11.68,
18658,1661622391630,-0.8073,0.5775,-0.0023,44.84,-2.11,-14.41,
18659,1661622391630,-0.7462,0.2708,-0.5521,43.65,-13.45,-10.58,
18660,1661622391630,-0.902,0.4544,-0.0179,46.84,-9.82,-8.21,
18661,1661622391630,-0.8956,0.1336,0.03,48.06,-6.86,-4.29,
18662,1661622391642,-0.7052,0.0116,-0.4495,47.95,-8.97,-5.57,
18663,1661622391642,-0.9122,0.118,0.0056,44.46,-4.91,-6.4,
18664,1661622391642,-0.7936,-0.1808,0.0412,43.97,-11.68,-6.93,
18665,1661622391642,-0.819,-0.1808,-0.0906,46.64,-21.66,-10.04,
18666,1661622391642,-0.8219,-0.1227,-0.0272,48.35,-9.22,-6.84,
18667,1661622391642,-0.9874,-0.2546,0.0939,40.95,-9.82,-1.28,
18668,1661622391642,-0.8732,-0.2355,-0.0203,41.27,-7.27,-5.76,
18669,1661622391642,-0.8927,-0.3805,0.1467,41.86,-6.34,0.27,
18670,1661622391642,-0.9318,-0.2282,-0.0081,39.35,-14.89,-7.75,
18671,1661622391642,-0.9577,-0.487,-0.1409,32.16,-23.77,-0.46,
18672,1661622391642,-1.1696,-0.486,0.4099,26.86,-9.3,-11.13,
18673,1661622391642,-1.1056,-0.3796,-0.0032,31.67,-17.08,-9.4,
18674,1661622391642,-1.0968,-0.5612,-0.0774,28.97,-14.89,-11.04,
18675,1661622391642,-1.109,-0.3669,0.4201,19.57,-10.66,-11.58,
18676,1661622391642,-1.0475,-0.5812,0.009,17.77,-13.12,-12.87,
18677,1661622391642,-1.0451,-0.466,0.1096,18.26,-11.16,-14.15,
18678,1661622391642,-1.0988,-0.4733,0.3659,13.95,-8.97,-3.83,
18679,1661622391650,-1.1535,-0.6056,0.2766,7.68,-17.6,-4.29,
18680,1661622391650,-1.1217,-0.4474,-0.0555,7.45,-27.99,-2.73,
18681,1661622391650,-1.0827,-0.5295,0.1071,8.16,-11.51,-0.64,
18682,1661622391650,-1.0836,-0.589,0.3889,5.78,3.47,-2.64,
18683,1661622391650,-1.1002,-0.4386,0.1877,0.37,4.74,-5.21,
18684,1661622391650,-1.0138,-0.6408,0.1511,-4.94,-11.33,0.18,
18685,1661622391650,-1.275,-0.3561,0.6135,-8.34,-11.85,-8.21,
18686,1661622391650,-1.1725,-0.3566,0.5358,-8.02,-15.74,-2.55,
18687,1661622391650,-1.1622,-0.53,0.1711,-7.71,1.78,-1.56,
18688,1661622391650,-1.1603,-0.1569,0.6989,-10.93,16.91,-3.01,
18689,1661622391650,-1.194,-0.174,0.6257,-10.43,5.24,-4.11,
18690,1661622391650,-1.1412,-0.1608,0.0993,-8.61,-4.07,-9.86,
18691,1661622391650,-1.1193,0.0042,0.5124,-12.73,-1.95,-5.02,
18692,1661622391650,-1.1417,0.1287,0.6867,-16.23,14.62,-9.49,
18693,1661622391650,-1.0729,0.224,-0.1224,-12.11,10.32,-3.38,
18694,1661622391650,-0.922,0.3099,-0.1839,-9.33,13.02,-6.12,
18695,1661622391650,-1.0162,0.4437,0.612,-6.61,9.89,-4.66,
18696,1661622391650,-1.1105,0.5609,0.3718,-2.02,1.85,-9.68,
18697,1661622391650,-0.9547,0.4666,-0.1336,-3.73,-2.54,-7.48,
18698,1661622391650,-0.9396,0.6825,0.2814,-4.04,5.15,-10.76,
18699,1661622391650,-0.9669,0.6707,0.2434,-2.52,12.6,-8.94,
18700,1661622391650,-0.9352,0.6136,-0.0574,4.37,8.8,-8.12,
18701,1661622391650,-0.8805,0.6092,-0.2127,10.48,10.57,-8.03,
18702,1661622391650,-0.9591,0.6014,0.3146,16.08,10.99,-10.23,
18703,1661622391650,-1.0827,0.5682,0.0065,18.78,6.67,-10.94,
18704,1661622391650,-0.9733,0.3802,-0.2029,16.26,-1.7,-11.68,
18705,1661622391650,-1.0211,0.5072,0.425,15.18,-1.35,-13.14,
18706,1661622391650,-1.1369,0.5877,0.4186,21.26,-2.71,-9.22,
18707,1661622391650,-0.9508,0.4251,-0.2806,22.36,-3.47,-3.47,
18708,1661622391650,-0.9245,0.4847,0.2394,23.17,9.04,-4.66,
18709,1661622391650,-1.0485,0.6024,0.7302,27.75,7.1,-2.64,
18710,1661622391650,-1.0685,0.4652,-0.2454,33.17,-3.98,-6.3,
18711,1661622391650,-0.7902,0.5653,-0.1273,37.94,-0.68,-3.74,
18712,1661622391650,-0.7316,0.6302,0.2258,37.26,14.12,-6.75,
18713,1661622391665,-0.9865,0.7528,0.2116,38.66,9.3,-5.21,
18714,1661622391665,-0.7706,0.5267,-0.7249,38.57,-4.66,-10.85,
18715,1661622391665,-0.7472,0.4896,-0.1307,42.37,-5.33,-8.58,
18716,1661622391665,-0.8048,0.7523,-0.0687,49.14,-16.5,-10.76,
18717,1661622391665,-0.6994,0.4847,-0.5882,49.34,-11.85,-6.93,
18718,1661622391665,-0.7096,0.4764,0.1325,46.17,2.71,-11.4,
18719,1661622391665,-0.819,0.3407,-0.1863,39.85,-16.08,-12.5,
18720,1661622391665,-0.8175,0.2235,-0.3958,46.64,-27.41,-14.68,
18721,1661622391665,-0.8703,0.2596,0.218,49.65,-5.41,-15.14,
18722,1661622391665,-0.8781,-0.0041,0.3146,49.86,-2.97,-12.68,
18723,1661622391665,-0.9572,-0.174,-0.3729,44.76,-8.97,-11.04,
18724,1661622391665,-1.025,-0.1686,0.2272,43.66,-0.08,-14.77,
18725,1661622391665,-0.8912,-0.4933,0.3322,44.24,-7.36,-13.32,
18726,1661622391665,-0.9503,-0.53,-0.5003,35.16,-17.94,-15.6,
18727,1661622391665,-1.0114,-0.6222,0.0148,33.76,-12.02,-6.56,
18728,1661622391665,-1.0499,-0.7536,0.3532,34.05,-13.62,-12.87,
18729,1661622391665,-1.0114,-0.7238,-0.1536,30.05,-17.01,-9.13,
18730,1661622391665,-1.1325,-0.7697,0.0007,24.56,-16.32,-12.32,
18731,1661622391665,-1.0612,-0.696,0.4855,21.77,-12.18,-12.41,
18732,1661622391665,-1.0436,-0.7448,0.2346,18.15,-18.53,-8.12,
18733,1661622391665,-1.1066,-0.5671,-0.0999,14.96,-13.12,-6.47,
18734,1661622391665,-0.9357,-0.6174,0.2839,11.57,-14.47,-5.3,
18735,1661622391665,-1.1251,-0.4328,0.7819,8.77,-3.98,-5.21,
18736,1661622391665,-1.1696,-0.3439,0.3908,8.98,-14.98,-8.94,
18737,1661622391665,-1.006,-0.5763,-0.5003,6.48,-15.91,-7.75,
18738,1661622391665,-1.0519,-0.4465,0.5305,0.77,1.26,-8.21,
18739,1661622391665,-1.1642,-0.3005,0.55,-0.53,-6.69,-2.73,
18740,1661622391665,-1.0968,-0.4606,-0.2293,-3.64,-13.45,-7.94,
18741,1661622391665,-1.0787,-0.3708,0.2297,-12.61,-16.58,-1.65,
18742,1661622391665,-1.2409,-0.3576,0.8654,-7.62,4.98,-7.11,
18743,1661622391680,-1.1989,-0.2399,0.2297,-6.22,4.22,-2.83,
18744,1661622391680,-1.1603,-0.259,-0.0735,-7.64,5.24,-5.76,
18745,1661622391680,-1.1373,-0.3571,0.4484,-12.23,3.55,-8.03,
18746,1661622391680,-1.3556,-0.1051,0.6584,-14.03,-2.45,-8.85,
18747,1661622391680,-1.1295,-0.1344,0.1564,-11.91,0.59,-9.4,
18748,1661622391680,-1.1002,-0.0939,0.2902,-11.63,12.35,-4.57,
18749,1661622391680,-1.1618,0.1405,0.4787,-13.31,16.32,-7.66,
18750,1661622391680,-1.1163,0.0941,0.2014,-13.53,4.74,-4.47,
18751,1661622391680,-1.0612,0.2318,0.3278,-7.33,7.44,-8.67,
18752,1661622391680,-0.9386,0.346,0.3874,-2.13,-1.35,-5.76,
18753,1661622391680,-1.1393,0.4403,0.1306,1.67,1.61,-11.49,
18754,1661622391680,-0.9669,0.5653,0.4216,-1.32,10.32,-5.57,
18755,1661622391680,-0.9713,0.557,0.2731,1.98,13.19,-4.66,
18756,1661622391680,-0.9616,0.6409,0.1081,1.27,14.88,-8.67,
18757,1661622391680,-0.9108,0.8133,-0.0706,5.38,11.83,-7.85,
18758,1661622391680,-0.944,0.6624,0.2731,10.35,14.46,-10.23,
18759,1661622391680,-0.9318,0.7572,0.0217,13.47,-0.25,-7.94,
18760,1661622391680,-0.9508,0.7742,-0.0716,12.87,-1.78,-11.22,
18761,1661622391680,-0.9581,0.8612,0.2888,12.87,1.61,-9.59,
18762,1661622391680,-1.0465,0.8372,0.1975,17.05,1.44,-8.3,
18763,1661622391680,-0.9655,0.7513,0.0251,17.05,8.11,-12.96,
18764,1661622391680,-1.0143,0.8607,0.0827,23.87,9.64,-9.86,
18765,1661622391680,-0.8878,0.7108,0.2507,31.06,8.8,-13.32,
18766,1661622391680,-0.8229,0.6766,0.1071,36.64,6.0,-14.59,
18767,1661622391680,-0.9801,0.6722,-0.1443,40.35,1.94,-16.15,
18768,1661622391680,-0.8751,0.5804,-0.345,41.27,7.77,-9.31,
18769,1661622391680,-0.7853,0.4481,-0.1116,41.85,6.26,-13.05,
18770,1661622391680,-0.8815,0.4017,-0.1727,39.25,-6.94,-13.69,
18771,1661622391680,-0.7326,0.1766,-0.4642,41.86,-23.69,-11.86,
18772,1661622391680,-0.8214,0.304,-0.0428,51.35,-14.29,-7.39,
18773,1661622391680,-0.7135,0.1575,0.007,50.24,-10.66,-3.74,
18774,1661622391680,-0.8204,0.1263,0.0139,43.97,-7.79,-7.11,
18775,1661622391680,-0.7843,0.1751,0.2087,39.86,-9.13,-8.12,
18776,1661622391680,-0.8483,0.0472,0.2492,40.64,-10.75,-8.03,
18777,1661622391695,-0.8283,0.0306,-0.2283,49.65,-15.39,-8.21,
18778,1661622391695,-0.8327,0.0604,0.0998,48.04,1.35,-7.85,
18779,1661622391695,-0.9215,0.0745,0.1833,41.56,5.58,-7.75,
18780,1661622391695,-0.8888,-0.1886,-0.721,38.16,-17.08,-7.94,
18781,1661622391695,-1.004,-0.1965,0.1281,43.25,-13.95,-11.31,
18782,1661622391695,-1.0358,-0.0685,0.3127,41.36,-10.23,-15.23,
18783,1661622391695,-0.9645,-0.2751,-0.2298,32.77,-24.45,-14.68,
18784,1661622391695,-0.986,-0.4919,-0.4549,29.85,-22.24,-20.8,
18785,1661622391695,-1.112,-0.3786,0.634,34.57,-6.26,-15.14,
18786,1661622391695,-1.1271,-0.5954,0.1164,33.04,-7.36,-15.87,
18787,1661622391695,-1.067,-0.6716,-0.3519,22.38,-11.59,-16.51,
18788,1661622391695,-1.0836,-0.6535,0.5661,15.18,-9.39,-10.49,
18789,1661622391695,-1.0455,-0.6584,0.3225,15.57,-15.31,-6.66,
18790,1661622391695,-1.0553,-0.7013,-0.3104,16.15,-7.36,-8.67,
18791,1661622391695,-0.9874,-0.8332,0.2526,9.97,-10.66,-6.84,
18792,1661622391695,-1.1994,-0.6022,0.3317,5.87,-27.41,-9.68,
18793,1661622391695,-1.0143,-0.7604,0.0168,6.46,-28.16,-5.57,
18794,1661622391695,-1.0665,-0.6925,0.3356,9.87,-9.3,-3.1,
18795,1661622391695,-1.0646,-0.5285,0.3977,1.76,8.03,-2.83,
18796,1661622391695,-1.0304,-0.5949,0.3361,-7.03,2.37,-3.92,
18797,1661622391695,-1.1471,-0.5324,0.3527,-10.54,-11.42,-8.03,
18798,1661622391695,-1.0783,-0.6242,0.4352,-5.03,-17.51,-4.38,
18799,1661622391695,-1.2575,-0.3683,0.5187,-5.21,6.51,-0.64,
18800,1661622391695,-1.2316,-0.1247,0.4587,-8.02,10.99,-0.64,
18801,1661622391695,-1.2057,-0.3078,0.1745,-14.43,6.77,2.0,
18802,1661622391695,-1.0983,-0.1574,0.2258,-14.93,-2.63,-0.0,
18803,1661622391695,-1.1618,0.0863,0.5197,-11.44,-2.97,-1.19,
18804,1661622391695,-1.1964,-0.0348,0.3659,-12.72,0.51,0.55,
18805,1661622391695,-1.0929,0.2835,0.1882,-14.62,7.44,-3.01,
18806,1661622391695,-1.151,0.3197,0.4499,-13.02,11.76,-0.64,
18807,1661622391695,-1.0617,0.3792,0.4294,-5.32,14.03,-1.83,
18808,1661622391695,-0.9611,0.3631,0.0422,2.08,8.29,-3.47,
18809,1661622391695,-1.0275,0.2816,0.0319,0.68,5.91,-2.48,
18810,1661622391695,-1.0841,0.5042,0.2204,-4.42,5.67,-6.47,
18811,1661622391711,-0.9616,0.3802,0.0305,-1.43,7.01,-3.83,
18812,1661622391711,-0.9259,0.3685,0.0349,-0.13,3.04,-4.84,
18813,1661622391711,-1.0553,0.4881,0.1389,4.28,3.21,-8.85,
18814,1661622391711,-1.0089,0.4242,0.0515,10.28,-4.91,-0.83,
18815,1661622391711,-1.0177,0.4198,0.1979,14.28,0.75,-2.64,
18816,1661622391711,-0.9396,0.5506,0.4782,14.26,9.39,2.09,
18817,1661622391711,-0.9533,0.5413,0.3977,13.16,8.7,-0.64,
18818,1661622391711,-1.088,0.682,0.299,15.86,4.98,-1.93,
18819,1661622391711,-0.8864,0.6668,0.3752,17.77,3.81,-2.02,
18820,1661622391711,-1.0885,0.7869,0.4191,21.57,11.5,-6.4,
18821,1661622391711,-0.9586,0.8094,-0.1512,27.55,5.15,-3.56,
18822,1661622391711,-0.8615,0.7694,-0.1683,30.46,16.15,-6.47,
18823,1661622391711,-0.8444,0.8944,0.3381,33.76,27.32,-8.85,
18824,1661622391711,-0.8229,0.8646,-0.5833,33.94,-4.66,-10.94,
18825,1661622391711,-0.8341,0.826,-0.5066,37.07,-8.37,-11.31,
18826,1661622391711,-0.8634,0.8494,0.195,40.84,-6.1,-10.13,
18827,1661622391711,-0.7409,0.6077,-0.6209,47.55,-11.76,-7.02,
18828,1661622391711,-0.7584,0.6859,-0.3856,43.16,-1.78,-8.03,
18829,1661622391711,-0.8478,0.5247,0.2907,45.25,-4.57,-11.4,
18830,1661622391711,-0.8429,0.4139,0.2038,50.35,-12.86,-13.14,
18831,1661622391711,-0.8488,0.1829,-0.2967,51.06,-14.55,-15.32,
18832,1661622391711,-0.8947,-0.0007,-0.0359,48.96,-0.51,-13.23,
18833,1661622391711,-0.8395,0.119,0.3503,44.46,-3.81,-12.68,
18834,1661622391711,-0.9288,-0.0431,-0.1014,43.45,-13.88,-13.87,
18835,1661622391711,-0.8502,-0.3605,-0.3465,48.36,-11.59,-20.16,
18836,1661622391711,-0.962,-0.3864,0.1862,45.46,-3.21,-11.31,
18837,1661622391711,-0.8663,-0.4484,0.113,36.86,-10.66,-13.87,
18838,1661622391711,-0.9982,-0.5114,-0.3699,40.17,-19.04,-9.86,
18839,1661622391711,-0.9577,-0.6833,0.112,35.16,-17.51,-3.38,
18840,1661622391711,-1.2604,-0.5573,0.5393,28.97,-13.12,-4.66,
18841,1661622391711,-1.0675,-0.6188,-0.1365,28.05,-21.83,-7.66,
18842,1661622391711,-1.0192,-0.6037,0.112,30.36,-14.64,-9.49,
18843,1661622391711,-1.0104,-0.3893,0.6755,27.06,7.18,-9.95,
18844,1661622391711,-1.1515,-0.6281,0.2702,18.56,-9.73,-7.66,
18845,1661622391727,-1.1212,-0.7887,-0.2923,16.17,-12.02,-12.68,
18846,1661622391727,-1.1207,-0.3976,0.4387,13.18,-11.42,-11.95,
18847,1661622391727,-1.069,-0.4728,0.2497,12.15,-10.16,-6.93,
18848,1661622391727,-0.9884,-0.5617,-0.262,8.58,-13.28,-8.94,
18849,1661622391727,-1.0036,-0.6266,0.278,7.88,-8.89,-8.58,
18850,1661622391727,-1.0953,-0.5431,0.2365,5.96,-18.01,-10.49,
18851,1661622391727,-1.0949,-0.549,-0.1712,2.86,-14.05,-9.77,
18852,1661622391727,-1.087,-0.779,0.4753,-0.24,6.08,-5.48,
18853,1661622391727,-1.2653,-0.5407,0.4841,-7.01,1.78,-8.4,
18854,1661622391727,-1.1989,-0.4904,0.2521,-11.82,-7.1,-7.85,
18855,1661622391727,-1.0509,-0.7365,0.2951,-6.83,-10.66,-4.29,
18856,1661622391727,-1.2477,-0.4045,0.6765,-7.51,6.77,-2.73,
18857,1661622391727,-1.2125,-0.3849,0.2111,-10.11,1.44,2.36,
18858,1661622391727,-1.2951,-0.2814,0.3801,-16.43,6.0,-4.29,
18859,1661622391727,-1.0817,-0.131,0.7302,-11.44,10.73,1.81,
18860,1661622391734,-1.214,-0.0407,0.05,-11.82,-2.8,-1.56,
18861,1661622391734,-1.1076,0.1131,0.0021,-9.62,-2.45,3.09,
18862,1661622391734,-1.0412,0.1546,0.5412,-8.61,5.33,2.0,
18863,1661622391734,-1.2077,0.223,0.6091,-7.91,15.48,-0.74,
18864,1661622391734,-1.1149,0.5062,-0.075,-5.64,4.81,2.45,
18865,1661622391734,-1.048,0.5252,0.2766,-3.64,11.5,-4.2,
18866,1661622391734,-0.879,0.5902,0.5461,-3.62,7.77,-0.28,
18867,1661622391734,-0.9796,0.6678,0.0353,-2.31,1.78,-7.11,
18868,1661622391734,-0.9328,0.6053,-0.117,-0.11,4.65,-4.66,
18869,1661622391734,-0.9245,0.7943,0.1896,1.56,6.34,-6.56,
18870,1661622391734,-0.9371,0.8079,0.0588,9.88,8.37,-6.84,
18871,1661622391734,-0.983,0.8011,-0.0057,10.86,4.22,-6.21,
18872,1661622391734,-0.9464,0.7122,-0.0198,11.06,3.88,-7.57,
18873,1661622391734,-0.9923,0.6859,0.3801,13.16,10.57,-9.49,
18874,1661622391734,-1.1173,0.7562,0.1296,15.57,7.7,-4.57,
18875,1661622391734,-0.9606,0.6873,-0.1395,20.56,2.78,-10.04,
18876,1661622391734,-0.8248,0.6336,0.0588,22.26,3.04,-6.56,
18877,1661622391734,-0.987,0.6126,0.381,27.66,4.98,-12.41,
18878,1661622391734,-0.9513,0.5521,-0.0379,31.04,0.59,-8.4,
18879,1661622391734,-0.8698,0.4974,-0.076,36.16,5.33,-8.4,
18880,1661622391734,-0.9171,0.5379,0.1984,39.06,12.43,-7.66,
18881,1661622391734,-0.8331,0.5384,0.0993,36.75,-4.57,-8.58,
18882,1661622391734,-0.8971,0.4056,-0.2532,40.26,-16.32,-14.32,
18883,1661622391734,-0.7399,0.3358,0.1237,45.97,-3.21,-9.59,
18884,1661622391734,-0.9537,0.474,-0.0408,46.35,1.44,-12.87,
18885,1661622391734,-0.7838,0.3714,-0.534,44.44,-4.74,-6.93,
18886,1661622391734,-0.7257,0.3665,0.3566,43.95,3.38,-15.51,
18887,1661622391734,-0.7897,0.3641,0.09,43.97,-7.79,-10.76,
18888,1661622391734,-0.8434,0.1688,-0.6409,49.16,-26.31,-13.87,
18889,1661622391734,-0.818,0.1121,-0.4524,46.94,-2.54,-6.66,
18890,1661622391734,-0.9728,0.3617,0.7629,42.06,-2.88,-14.22,
18891,1661622391734,-0.8644,0.0565,-0.4212,44.37,-18.94,-13.05,
18892,1661622391734,-0.797,-0.1252,-0.5926,44.96,-14.47,-17.25,
18893,1661622391734,-0.9596,-0.1291,0.801,43.05,4.74,-16.88,
18894,1661622391734,-1.0358,-0.2331,0.0031,43.65,-13.28,-15.32,
18895,1661622391750,-0.9855,-0.4967,-0.7737,41.66,-23.6,-10.13,
18896,1661622391750,-1.0275,-0.6105,0.6159,35.16,-0.34,-8.49,
18897,1661622391750,-1.1857,-0.5612,0.3859,31.55,-4.48,-11.13,
18898,1661622391750,-1.067,-0.7912,-0.4681,31.46,-16.41,-11.13,
18899,1661622391750,-1.0602,-0.7907,0.2868,25.15,-19.8,-10.49,
18900,1661622391750,-1.1622,-0.7126,0.4645,23.17,-10.92,-4.38,
18901,1661622391750,-1.0138,-0.8205,-0.1434,22.47,-6.43,-2.29,
18902,1661622391750,-1.0626,-0.7707,-0.1102,14.98,-7.7,-6.03,
18903,1661622391750,-1.005,-0.7814,0.405,10.67,-15.82,-5.02,
18904,1661622391750,-1.2545,-0.611,0.2932,10.96,-17.51,-7.57,
18905,1661622391750,-1.0504,-0.5383,0.217,12.57,1.44,-5.02,
18906,1661622391750,-0.9777,-0.6462,0.091,7.47,-4.14,-1.93,
18907,1661622391750,-1.0573,-0.3605,0.2102,-1.53,-5.67,-7.94,
18908,1661622391750,-1.0587,-0.529,0.3474,-1.84,-12.02,-8.12,
18909,1661622391750,-1.0509,-0.4928,0.217,-1.91,-2.45,-6.93,
18910,1661622391750,-1.0953,-0.3517,-0.0726,-7.03,-7.44,-10.67,
18911,1661622391750,-1.1417,-0.3005,0.1975,-12.23,1.61,-6.75,
18912,1661622391750,-1.1896,-0.0783,0.9201,-12.84,3.04,-11.31,
18913,1661622391750,-1.11,-0.1857,0.1286,-9.83,-2.8,-12.04,
18914,1661622391750,-1.1681,-0.2218,0.0065,-10.83,-0.68,-10.23,
18915,1661622391750,-1.2506,0.0325,0.9069,-15.02,8.03,-5.3,
18916,1661622391750,-1.1696,-0.1354,0.5266,-11.54,15.22,-7.39,
18917,1661622391750,-1.1085,0.0535,-0.1653,-12.43,7.36,-8.67,
18918,1661622391750,-1.0905,0.0994,0.4875,-10.72,8.29,-8.94,
18919,1661622391750,-1.0944,0.0965,0.4943,-8.81,-2.04,-8.4,
18920,1661622391750,-1.1188,0.1829,0.1892,-5.62,-0.08,-6.3,
18921,1661622391750,-1.0426,0.1239,-0.2142,-3.13,-2.63,-1.93,
18922,1661622391750,-1.1115,0.2357,0.5314,-5.73,12.52,-1.93,
18923,1661622391750,-1.028,0.3636,0.5432,-3.73,9.56,-6.21,
18924,1661622391750,-0.9352,0.2708,-0.3016,-3.12,4.48,-5.76,
18925,1661622391750,-0.8864,0.4534,-0.1273,2.48,5.91,-9.86,
18926,1661622391750,-0.8942,0.5487,0.675,7.76,5.91,-7.21,
18927,1661622391750,-1.0592,0.4769,0.2639,13.45,4.48,-2.73,
18928,1661622391750,-0.8673,0.6966,-0.1898,15.47,2.37,-8.58,
18929,1661622391766,-1.0524,0.7791,0.4787,11.86,14.88,-7.3,
18930,1661622391766,-1.0626,0.8177,0.5495,12.87,14.46,-9.31,
18931,1661622391766,-0.9572,0.7381,-0.2391,14.06,4.22,-9.95,
18932,1661622391768,-0.9078,0.7069,0.0534,20.07,11.25,-10.58,
18933,1661622391768,-1.0372,1.0618,0.3815,23.35,2.54,-13.23,
18934,1661622391768,-0.9098,0.8407,-0.0062,29.17,2.62,-9.04,
18935,1661622391768,-0.8327,0.8743,0.027,33.76,9.73,-12.5,
18936,1661622391768,-0.8527,0.8763,-0.0008,38.25,10.73,-7.21,
18937,1661622391768,-0.9083,0.6932,-0.0726,41.15,5.5,-11.95,
18938,1661622391771,-0.8517,0.6331,-0.0682,42.75,0.25,-12.5,
18939,1661622391771,-0.777,0.4632,-0.3431,46.56,-7.44,-13.51,
18940,1661622391771,-0.7789,0.4207,-0.221,49.66,-4.91,-13.87,
18941,1661622391771,-0.8678,0.4134,0.0373,51.64,-1.52,-13.69,
18942,1661622391771,-0.6803,-0.0207,-0.431,49.26,-18.53,-8.4,
18943,1661622391771,-0.8317,0.14,-0.0818,45.14,-21.9,-11.22,
18944,1661622391771,-0.84,-0.0265,0.3605,49.75,-10.92,-12.13,
18945,1661622391771,-0.8893,-0.1217,-0.0369,46.65,-3.64,-9.31,
18946,1661622391771,-0.8356,-0.0217,-0.1111,43.36,-9.99,-8.12,
18947,1661622391771,-0.839,-0.1296,0.2253,42.26,-7.2,-8.67,
18948,1661622391771,-0.9425,-0.1144,0.1618,45.65,-2.63,-13.23,
18949,1661622391771,-0.82,-0.3175,-0.2845,45.34,-6.94,-11.31,
18950,1661622391771,-1.0709,-0.2135,0.1315,36.97,-2.28,-8.94,
18951,1661622391771,-1.0885,-0.175,-0.0062,37.85,-16.58,-5.94,
18952,1661622391771,-1.0656,-0.4958,-0.2181,40.66,-14.55,-8.3,
18953,1661622391771,-0.9918,-0.319,0.1633,34.17,-13.71,-11.31,
18954,1661622391771,-0.983,-0.4342,0.0803,26.77,-18.27,-11.58,
18955,1661622391771,-0.9967,-0.4933,-0.0042,27.87,-7.62,-19.43,
18956,1661622391771,-0.9787,-0.5617,0.0915,22.56,-1.78,-19.15,
18957,1661622391771,-1.111,-0.6569,0.2575,19.17,-3.98,-16.33,
18958,1661622391771,-1.1452,-0.6467,0.0114,15.68,-20.21,-14.32,
18959,1661622391771,-1.0621,-0.8258,0.1242,14.35,-13.45,-12.32,
18960,1661622391771,-1.0094,-0.6857,0.1364,14.87,-2.37,-8.49,
18961,1661622391771,-1.0602,-0.5729,-0.013,10.08,-5.33,-11.86,
18962,1661622391771,-0.9635,-0.903,0.0651,-0.02,-21.57,-6.84,
18963,1661622391771,-1.1818,-0.7687,0.4743,5.46,-19.28,-11.95,
18964,1661622391771,-1.1486,-0.8039,0.1677,7.27,-10.83,-1.56,
18965,1661622391771,-1.1842,-0.7316,0.2145,-5.12,4.65,-3.92,
18966,1661622391771,-1.0831,-0.5163,0.6823,-14.93,6.0,-2.2,
18967,1661622391771,-1.1442,-0.6252,0.2033,-14.03,-12.52,-2.48,
18968,1661622391771,-1.1276,-0.2619,0.363,-8.02,-3.64,-2.92,
18969,1661622391771,-1.2218,-0.28,0.5881,-4.92,7.44,0.64,
18970,1661622391771,-1.3268,-0.2702,0.465,-13.11,8.2,1.54,
18971,1661622391771,-1.1134,0.0076,0.3029,-19.52,9.39,-3.83,
18972,1661622391786,-1.1134,0.0311,0.4943,-18.41,5.33,-2.92,
18973,1661622391786,-1.0856,0.2523,0.256,-15.81,0.51,-2.38,
18974,1661622391786,-1.0001,0.3216,0.2106,-5.73,-1.44,-4.38,
18975,1661622391786,-1.1417,0.2757,0.4811,-4.42,3.29,-1.56,
18976,1661622391786,-1.1305,0.5789,0.5485,-6.61,8.87,-3.38,
18977,1661622391786,-1.0236,0.4525,0.069,-3.12,10.23,0.91,
18978,1661622391786,-0.9703,0.4417,0.1799,-5.12,16.65,-5.48,
18979,1661622391786,-0.8976,0.6146,0.2966,-4.52,11.42,-5.48,
18980,1661622391786,-0.9523,0.5321,0.155,-1.01,9.22,-7.75,
18981,1661622391786,-0.9376,0.4925,-0.1356,8.17,6.08,-7.02,
18982,1661622391786,-0.9313,0.4959,0.1345,10.17,6.84,-5.02,
18983,1661622391786,-0.9664,0.5506,0.2717,13.07,-1.27,-7.94,
18984,1661622391786,-0.9596,0.6068,-0.0784,13.48,-7.7,-8.67,
18985,1661622391786,-0.9577,0.4759,-0.1224,15.66,-5.24,-6.93,
18986,1661622391786,-1.0372,0.5081,0.4875,14.28,14.03,-6.56,
18987,1661622391786,-1.0944,0.6439,0.5544,17.68,13.86,-8.21,
18988,1661622391786,-0.9347,0.4906,-0.0423,22.58,-0.59,-6.03,
18989,1661622391786,-0.8698,0.6922,0.5192,28.25,2.37,-10.58,
18990,1661622391786,-0.9157,0.7298,0.5602,32.16,9.13,-5.57,
18991,1661622391786,-1.1129,0.682,0.09,36.84,13.36,-4.47,
18992,1661622391786,-0.796,0.6068,-0.4593,34.95,12.76,-4.11,
18993,1661622391786,-0.837,0.7425,0.2209,33.17,12.76,-11.04,
18994,1661622391786,-0.841,0.8138,-0.0027,40.55,-3.64,-12.13,
18995,1661622391786,-0.6344,0.4198,-0.9896,49.26,-19.54,-13.42,
18996,1661622391786,-0.7081,0.6776,0.029,45.97,7.94,-8.58,
18997,1661622391786,-0.9054,0.6439,-0.0213,44.15,-1.11,-16.7,
18998,1661622391786,-0.7467,0.5238,-0.3748,44.05,-9.56,-16.7,
18999,1661622391786,-0.6959,0.4842,-0.1321,45.75,-15.65,-16.97,
19000,1661622391786,-0.8883,0.1922,0.0808,50.56,-9.9,-10.94,
19001,1661622391786,-0.9996,0.2127,-0.0135,50.85,-0.68,-13.14,
19002,1661622391786,-0.9205,0.0799,0.0593,48.76,-0.68,-12.5,
19003,1661622391786,-0.8414,-0.2204,-0.1082,46.36,-7.96,-14.15,
19004,1661622391802,-1.048,-0.1842,-0.117,45.86,-12.26,-11.13,
19005,1661622391802,-1.0192,-0.5011,0.2258,44.05,3.97,-13.32,
19006,1661622391802,-0.8869,-0.5383,-0.3235,36.46,-9.82,-9.31,
19007,1661622391802,-1.0641,-0.4948,-0.2913,35.07,-17.77,-8.4,
19008,1661622391802,-1.1007,-0.777,0.3625,36.64,-15.91,-5.57,
19009,1661622391802,-1.0866,-0.6335,0.2531,36.77,-10.49,-9.22,
19010,1661622391802,-1.0607,-0.7995,-0.1849,30.25,-18.87,-8.4,
19011,1661622391802,-1.1217,-0.7546,0.0256,23.57,-17.85,-12.96,
19012,1661622391802,-1.0485,-0.5636,0.611,23.26,-2.71,-6.75,
19013,1661622391802,-1.0607,-0.7345,0.2536,20.27,1.85,-9.49,
19014,1661622391802,-1.0563,-0.5539,-0.1849,18.07,-7.03,-7.48,
19015,1661622391802,-0.9816,-0.5583,0.3991,11.96,-7.53,-7.85,
19016,1661622391802,-1.089,-0.466,0.5959,12.66,-4.57,-7.3,
19017,1661622391802,-0.9918,-0.4723,-0.6385,9.68,-16.75,-7.21,
19018,1661622391802,-1.0485,-0.6364,0.1218,4.77,-2.21,-3.19,
19019,1661622391802,-1.0597,-0.3976,0.82,-0.53,-0.18,-10.76,
19020,1661622391802,-1.1134,-0.3258,0.2473,0.07,-19.2,-9.59,
19021,1661622391802,-1.0538,-0.611,-0.4109,0.08,-19.2,-12.23,
19022,1661622391802,-1.1622,-0.4235,0.5881,-2.62,7.18,-2.64,
19023,1661622391802,-1.2623,-0.464,0.7253,-9.82,13.69,-1.65,
19024,1661622391802,-1.1989,-0.3913,-0.0193,-9.62,2.37,-4.84,
19025,1661622391802,-1.1354,-0.3932,0.3727,-9.51,-1.27,-7.75,
19026,1661622391802,-1.2077,-0.3395,0.7023,-7.32,-2.04,-5.39,
19027,1661622391802,-1.2433,-0.1203,0.3537,-10.63,6.17,2.18,
19028,1661622391802,-1.1242,-0.2004,0.0866,-10.72,7.44,-1.56,
19029,1661622391802,-1.1066,-0.1589,0.3674,-14.81,11.07,-0.46,
19030,1661622391802,-1.1784,0.0946,0.634,-13.1,2.54,-5.57,
19031,1661622391802,-1.111,0.0648,0.2419,-5.62,-6.69,-4.47,
19032,1661622391802,-0.9567,0.3924,0.2814,-2.92,2.62,-3.74,
19033,1661622391802,-1.0441,0.2904,0.2077,1.08,5.15,-0.55,
19034,1661622391802,-1.1691,0.3153,0.2302,-0.02,10.14,-3.38,
19035,1661622391802,-0.9313,0.5106,0.298,-2.42,14.03,-5.11,
19036,1661622391802,-0.9581,0.5301,0.2092,-1.12,10.73,-4.47,
19037,1661622391802,-0.8278,0.7879,0.0554,-0.83,6.0,-7.11,
19038,1661622391817,-0.8131,0.6102,0.0153,6.28,1.61,-5.48,
19039,1661622391817,-0.9083,0.5257,0.1755,12.35,8.37,-8.67,
19040,1661622391817,-0.9386,0.828,0.0705,14.76,-2.45,-10.67,
19041,1661622391817,-0.9469,0.7816,0.0285,14.96,3.55,-9.31,
19042,1661622391817,-0.9352,0.8612,0.3498,14.37,11.42,-11.77,
19043,1661622391817,-0.8844,0.8387,0.0861,16.98,7.77,-12.96,
19044,1661622391817,-0.9362,0.7674,0.0241,20.46,12.52,-10.04,
19045,1661622391817,-0.9752,0.7718,0.1638,29.26,7.36,-12.68,
19046,1661622391817,-0.8932,0.6048,0.0373,36.66,4.4,-11.58,
19047,1661622391817,-0.8131,0.6082,-0.094,39.85,2.45,-9.68,
19048,1661622391817,-0.9259,0.6322,-0.0579,40.57,9.22,-7.48,
19049,1661622391817,-0.7941,0.3504,-0.2244,39.67,7.53,-11.22,
19050,1661622391817,-0.8297,0.3382,-0.2034,37.67,-0.34,-8.94,
19051,1661622391817,-0.8839,0.3089,-0.0691,44.24,-20.3,-8.58,
19052,1661622391817,-0.7955,0.2625,-0.0106,47.55,-14.47,-9.59,
19053,1661622391817,-0.8424,0.2845,-0.1097,49.34,-7.44,-15.14,
19054,1661622391817,-0.693,0.1678,0.0119,47.34,0.68,-7.85,
19055,1661622391817,-0.8502,0.2611,0.4851,45.72,3.55,-8.03,
19056,1661622391817,-0.7897,0.0174,-0.1697,44.95,-12.95,-8.94,
19057,1661622391817,-0.7775,0.0335,-0.3646,48.23,-11.59,-9.59,
19058,1661622391817,-0.7951,0.2337,0.0632,47.25,1.26,-14.32,
19059,1661622391817,-0.9015,0.1224,0.2102,49.84,0.16,-13.42,
19060,1661622391817,-0.8576,-0.0661,-0.5169,50.15,-13.62,-13.96,
19061,1661622391817,-0.9088,-0.1291,-0.3226,44.24,-16.08,-9.77,
19062,1661622391817,-1.0817,-0.071,0.4987,37.07,-4.4,-9.77,
19063,1661622391817,-1.0045,-0.2194,-0.3016,38.06,-18.53,-13.42,
19064,1661622391817,-0.9157,-0.5143,-0.3021,36.86,-20.97,-8.4,
19065,1661622391817,-1.1163,-0.3674,0.6984,34.86,-1.61,-13.87,
19066,1661622391817,-1.1647,-0.633,0.1169,33.26,0.16,-15.14,
19067,1661622391817,-1.0192,-0.7223,-0.0975,26.86,0.25,-16.97,
19068,1661622391817,-1.1188,-0.6769,0.1979,21.57,-6.69,-17.15,
19069,1661622391817,-1.1515,-0.6925,0.3732,19.05,-14.21,-15.32,
19070,1661622391817,-1.0006,-0.7887,-0.1365,19.95,-6.26,-10.04,
19071,1661622391817,-1.068,-0.8234,-0.035,15.56,-2.63,-8.94,
19072,1661622391817,-1.047,-0.8634,0.1144,8.87,-24.62,-9.77,
19073,1661622391833,-1.214,-0.5827,0.2819,8.87,-22.5,-6.4,
19074,1661622391833,-0.9703,-0.7375,0.2316,12.08,-8.55,-3.47,
19075,1661622391833,-1.0602,-0.6296,-0.0608,4.68,0.25,-0.74,
19076,1661622391833,-1.1105,-0.6374,0.51,-1.21,7.18,-6.56,
19077,1661622391833,-1.1359,-0.5968,0.7141,-6.54,1.01,-5.94,
19078,1661622391833,-1.091,-0.4679,0.2907,-4.23,-5.59,-8.76,
19079,1661622391833,-1.087,-0.528,-0.0799,-5.12,-9.73,-9.31,
19080,1661622391833,-1.2975,-0.2384,0.7922,-11.31,18.94,-7.11,
19081,1661622391833,-1.2326,-0.1452,0.3928,-14.72,9.56,-6.47,
19082,1661622391833,-1.1305,-0.2272,-0.2596,-16.82,2.11,-6.47,
19083,1661622391833,-1.1784,0.1497,0.5119,-11.01,-1.35,-8.3,
19084,1661622391833,-1.1286,0.0379,0.6896,-11.63,6.34,-2.2,
19085,1661622391833,-1.1725,0.0076,0.2863,-14.12,4.98,-5.48,
19086,1661622391833,-1.0768,0.2283,-0.1121,-12.23,6.93,-5.76,
19087,1661622391833,-1.0953,0.1859,0.6511,-7.03,17.25,-2.38,
19088,1661622391833,-1.0675,0.2899,0.4753,0.57,18.01,-6.66,
19089,1661622391833,-0.9635,0.1546,-0.2703,-0.31,6.51,-10.32,
19090,1661622391833,-0.9142,0.2523,0.2048,-2.13,3.38,-7.39,
19091,1661622391833,-1.1417,0.3822,0.4958,-2.13,4.65,-10.13,
19092,1661622391833,-1.0368,0.2723,0.1481,0.36,1.52,-4.11,
19093,1661622391833,-0.9367,0.2088,-0.16,0.57,-3.14,-5.3,
19094,1661622391833,-1.0153,0.4993,0.531,3.67,5.07,-2.11,
19095,1661622391833,-1.0026,0.4481,0.591,10.06,6.43,-2.83,
19096,1661622391833,-1.0109,0.3817,0.1061,14.46,6.93,-5.02,
19097,1661622391833,-0.8478,0.5018,0.2707,17.57,7.27,-5.85,
19098,1661622391833,-1.13,0.5936,0.5847,16.08,10.57,-2.48,
19099,1661622391833,-0.9699,0.6727,-0.0208,15.36,1.69,-2.02,
19100,1661622391833,-0.8434,0.6527,0.0129,18.26,12.6,-3.01,
19101,1661622391833,-0.9738,0.7884,0.531,24.45,21.81,-0.09,
19102,1661622391833,-0.9967,0.8143,-0.3162,30.16,8.37,-4.2,
19103,1661622391833,-0.8922,0.7479,-0.0555,34.07,10.57,-5.57,
19104,1661622391833,-0.9152,0.9051,0.2419,36.37,2.02,-5.85,
19105,1661622391833,-0.7579,0.7855,-0.7176,39.45,-9.56,-8.94,
19106,1661622391848,-0.8414,0.7205,-0.5652,38.25,-0.18,-9.59,
19107,1661622391848,-0.8551,0.7645,0.3903,42.37,8.87,-11.04,
19108,1661622391848,-0.7467,0.5443,-0.3802,47.75,-0.18,-8.94,
19109,1661622391848,-0.8346,0.5701,-0.4461,50.15,-4.66,-14.77,
19110,1661622391848,-0.8976,0.4705,0.5358,54.16,-0.34,-15.6,
19111,1661622391848,-0.7951,0.1732,-0.159,56.25,-14.38,-15.05,
19112,1661622391848,-0.8634,0.1043,-0.4251,50.96,-3.21,-9.59,
19113,1661622391848,-0.8571,-0.0387,0.3142,46.24,2.28,-9.49,
19114,1661622391848,-0.8644,-0.0622,0.2956,44.26,-11.93,-8.4,
19115,1661622391848,-0.9122,-0.1481,-0.388,48.46,-18.7,-10.13,
19116,1661622391848,-0.9122,-0.3805,-0.1463,48.76,-7.03,-12.77,
19117,1661622391848,-0.9806,-0.319,0.3942,41.86,-1.18,-11.77,
19118,1661622391848,-0.8312,-0.4142,-0.138,40.84,-9.22,-16.7,
19119,1661622391848,-1.0016,-0.4328,-0.2596,42.05,-8.63,-17.15,
19120,1661622391848,-0.9884,-0.4914,0.2321,38.45,-10.06,-12.59,
19121,1661622391848,-1.2731,-0.5553,0.1999,29.46,-17.94,-7.3,
19122,1661622391848,-1.0758,-0.4845,-0.0887,30.45,-14.81,-8.21,
19123,1661622391848,-1.0729,-0.5104,0.0939,30.75,-1.18,-3.28,
19124,1661622391848,-1.0333,-0.3278,0.2853,24.24,-0.18,-3.1,
19125,1661622391848,-0.9777,-0.5602,-0.1565,19.75,-11.76,-5.02,
19126,1661622391848,-1.0231,-0.5378,0.1838,16.56,-8.97,-4.66,
19127,1661622391848,-1.1305,-0.4216,0.319,15.56,-12.09,-8.4,
19128,1661622391848,-1.1232,-0.5778,0.0646,16.37,-5.17,-9.31,
19129,1661622391860,-1.0304,-0.5798,-0.0687,11.38,-5.07,-14.5,
19130,1661622391860,-1.0338,-0.6222,0.1945,9.96,-9.9,-8.12,
19131,1661622391860,-1.089,-0.634,0.2111,7.27,-11.68,-6.12,
19132,1661622391860,-1.1022,-0.6676,-0.0242,6.07,-1.7,-5.66,
19133,1661622391860,-1.0275,-0.9372,0.1535,1.87,4.05,-3.47,
19134,1661622391860,-1.2872,-0.6335,0.4777,-6.83,6.0,-5.02,
19135,1661622391863,-1.297,-0.5202,0.4191,-11.33,-3.04,-7.85,
19136,1661622391863,-1.0553,-0.7985,0.0519,-7.73,-11.16,-5.66,
19137,1661622391863,-1.2057,-0.4284,0.5017,-8.73,7.61,0.64,
19138,1661622391863,-1.2233,-0.3019,0.5832,-8.73,6.08,-1.65,
19139,1661622391863,-1.2467,-0.3175,0.0783,-13.65,3.29,3.37,
19140,1661622391863,-1.0548,-0.1349,0.6374,-15.71,13.95,-0.83,
19141,1661622391863,-1.2789,0.0155,0.6096,-11.01,6.6,-0.37,
19142,1661622391863,-1.1364,0.1004,0.1896,-11.82,3.21,-3.83,
19143,1661622391863,-0.9528,0.1497,0.0939,-8.12,11.76,-3.28,
19144,1661622391863,-1.1017,0.3221,0.8791,-7.22,20.47,-2.2,
19145,1661622391863,-1.1671,0.4393,-0.0594,-3.33,7.77,-3.1,
19146,1661622391863,-0.9303,0.3133,-0.098,-2.42,8.8,0.91,
19147,1661622391863,-0.8956,0.4105,0.4226,-6.52,13.19,-2.02,
19148,1661622391863,-0.9376,0.6732,0.3268,-3.12,4.48,-0.74,
19149,1661622391863,-0.9328,0.5404,-0.3348,-0.74,-2.11,-1.74,
19150,1661622391863,-0.9093,0.6185,0.2541,5.97,2.19,-4.11,
19151,1661622391863,-0.9923,0.7313,0.4162,9.16,3.12,-4.84,
19152,1661622391863,-0.9918,0.7674,0.1257,13.38,3.38,-6.93,
19153,1661622391871,-0.9093,0.6229,-0.1995,16.08,4.14,-6.12,
19154,1661622391871,-0.8829,0.5262,0.3903,17.97,16.65,-6.93,
19155,1661622391871,-1.1061,0.6248,0.2541,18.87,13.95,-10.32,
19156,1661622391871,-1.0499,0.6058,-0.1468,21.17,3.47,-10.39,
19157,1661622391871,-0.8512,0.5238,0.2643,22.97,1.78,-7.94,
19158,1661622391871,-0.9874,0.5418,0.4016,28.57,0.25,-5.02,
19159,1661622391871,-0.9069,0.555,0.031,36.84,4.48,-6.47,
19160,1661622391871,-0.8898,0.4788,0.0305,39.47,14.21,-1.65,
19161,1661622391871,-0.819,0.4427,0.0939,38.35,11.33,-3.01,
19162,1661622391871,-0.8107,0.5579,0.0197,35.96,2.37,-6.3,
19163,1661622391871,-0.9533,0.5965,0.01,39.27,-6.01,-9.49,
19164,1661622391871,-0.7599,0.3455,0.0026,46.85,-8.89,-9.86,
19165,1661622391871,-0.8659,0.4993,-0.1907,52.96,1.09,-5.76,
19166,1661622391871,-0.8507,0.4959,-0.2659,50.55,4.31,-8.12,
19167,1661622391871,-0.7247,0.4539,0.1467,47.34,13.62,-7.94,
19168,1661622391871,-0.7487,0.4344,0.1306,45.95,3.88,-5.57,
19169,1661622391871,-0.8258,0.2435,-0.657,49.74,-24.7,-7.57,
19170,1661622391871,-0.9157,0.2308,-0.1981,49.46,-12.61,-8.21,
19171,1661622391871,-0.9581,0.2313,0.4196,49.36,-2.63,-14.22,
19172,1661622391871,-0.8512,-0.0807,-0.471,48.26,-8.03,-12.32,
19173,1661622391871,-0.9601,-0.0456,-0.2518,50.15,-8.72,-13.6,
19174,1661622391871,-1.0602,-0.2262,0.718,52.06,2.02,-14.68,
19175,1661622391871,-1.0265,-0.3473,-0.1868,48.04,-9.3,-12.13,
19176,1661622391871,-1.0626,-0.4977,-0.5555,36.25,-17.43,-16.15,
19177,1661622391871,-1.0402,-0.7126,0.5519,33.76,2.11,-5.85,
19178,1661622391871,-1.0978,-0.6584,0.5104,36.57,-2.88,-6.75,
19179,1661622391871,-1.1095,-0.6681,-0.3113,34.05,-7.53,-7.57,
19180,1661622391871,-1.028,-0.9816,-0.305,29.87,-16.5,-8.3,
19181,1661622391871,-1.2282,-0.7682,0.6535,23.16,-12.43,-8.21,
19182,1661622391871,-1.069,-0.7194,0.3503,22.27,-17.01,-1.56,
19183,1661622391871,-1.0553,-0.7751,-0.3831,18.98,-12.61,-1.56,
19184,1661622391871,-0.9982,-0.7394,0.4479,13.47,-2.28,-3.47,
19185,1661622391871,-1.2658,-0.5885,0.7785,10.08,-6.34,-4.29,
19186,1661622391871,-0.9938,-0.5324,-0.1946,13.57,-8.8,-2.92,
19187,1661622391886,-1.0143,-0.6091,-0.0286,10.96,-0.18,-3.1,
19188,1661622391886,-1.0944,-0.5295,0.3747,5.87,12.18,-5.11,
19189,1661622391886,-1.1007,-0.4225,0.2473,-1.91,-4.24,-3.92,
19190,1661622391886,-1.049,-0.6017,-0.0862,-1.64,-4.83,-5.85,
19191,1661622391886,-1.11,-0.3595,0.1174,-2.04,-11.76,-7.39,
19192,1661622391886,-1.1608,-0.3005,0.3361,-5.33,-3.21,-4.02,
19193,1661622391886,-1.1491,-0.1711,0.5451,-9.31,8.37,-10.85,
19194,1661622391886,-1.0641,-0.2843,0.1144,-9.91,8.2,-9.77,
19195,1661622391886,-1.2067,-0.2936,0.3161,-8.63,8.29,-10.23,
19196,1661622391886,-1.2716,-0.1515,0.6769,-10.43,6.17,-10.49,
19197,1661622391886,-1.2194,-0.1081,0.7687,-9.93,8.87,-7.21,
19198,1661622391886,-1.0162,-0.1164,-0.0037,-10.83,3.88,-4.93,
19199,1661622391886,-1.1095,0.0741,0.152,-7.32,21.48,-2.55,
19200,1661622391886,-1.0455,-0.0763,0.4968,-5.91,19.54,-3.47,
19201,1661622391886,-1.0866,0.1356,0.1486,-5.12,7.27,-5.11,
19202,1661622391886,-0.9411,0.1663,-0.1463,-1.84,-6.6,-2.48,
19203,1661622391886,-0.9635,0.1297,0.0978,-0.13,-3.64,-1.01,
19204,1661622391886,-1.0016,0.3519,0.6271,1.08,8.8,-1.56,
19205,1661622391886,-0.8693,0.3602,0.0759,0.79,3.04,2.55,
19206,1661622391886,-0.9035,0.5736,0.1203,1.89,10.57,1.9,
19207,1661622391886,-0.861,0.6551,0.3522,10.58,12.43,3.74,
19208,1661622391886,-0.9606,0.5565,0.4665,11.68,15.56,1.54,
19209,1661622391886,-0.8517,0.7108,0.1462,14.78,12.09,-2.29,
19210,1661622391886,-0.8786,0.6585,-0.0623,13.56,4.22,-0.92,
19211,1661622391886,-0.9044,0.807,0.2487,15.68,10.4,-3.83,
19212,1661622391886,-0.9689,0.9632,0.1306,16.85,6.51,-3.47,
19213,1661622391886,-0.8683,0.7694,-0.1658,21.68,6.67,2.45,
19214,1661622391886,-0.9601,0.9129,0.1511,26.13,9.47,-5.85,
19215,1661622391886,-0.9249,0.8548,0.1491,30.37,4.9,-6.4,
19216,1661622391886,-0.861,0.7835,0.0783,36.75,6.51,-4.02,
19217,1661622391886,-0.796,0.8128,-0.1238,43.97,1.61,-8.4,
19218,1661622391886,-0.8107,0.5936,-0.242,46.65,2.45,-4.2,
19219,1661622391886,-0.8595,0.596,0.0339,45.86,6.26,-7.66,
19220,1661622391886,-0.9025,0.4359,-0.1204,47.46,5.84,-7.75,
19221,1661622391886,-0.7897,0.2572,-0.2464,49.34,2.19,-4.66,
19222,1661622391903,-0.7877,0.4071,-0.0477,48.87,1.85,-11.13,
19223,1661622391903,-0.9166,0.3216,-0.0237,51.05,-9.39,-6.84,
19224,1661622391903,-0.7106,-0.0802,-0.3973,52.15,-20.39,-11.4,
19225,1661622391903,-0.8463,0.1297,0.2424,54.36,0.75,-7.75,
19226,1661622391903,-0.8087,0.0291,0.3386,51.14,6.26,-9.86,
19227,1661622391903,-0.8971,-0.0592,-0.4363,49.86,-7.27,-10.04,
19228,1661622391903,-0.8595,-0.1379,0.0593,47.75,-13.12,-9.49,
19229,1661622391903,-0.9069,-0.0685,0.465,49.34,-2.37,-9.77,
19230,1661622391903,-0.9396,-0.1095,-0.0955,52.56,-6.6,-13.14,
19231,1661622391903,-0.8663,-0.3254,-0.5174,45.34,-4.66,-15.41,
19232,1661622391903,-1.1188,-0.0588,0.4772,39.47,-5.17,-13.96,
19233,1661622391903,-1.1432,-0.2477,-0.1165,42.44,-18.7,-11.77,
19234,1661622391903,-1.0783,-0.589,-0.2693,41.15,-12.95,-10.67,
19235,1661622391903,-1.0807,-0.3298,0.53,30.18,-8.13,-3.65,
19236,1661622391903,-1.0768,-0.5133,0.0153,29.87,-10.92,-2.92,
19237,1661622391903,-1.0792,-0.5348,-0.0545,28.66,-3.14,-7.02,
19238,1661622391903,-1.0739,-0.634,0.3991,25.87,0.85,-9.77,
19239,1661622391903,-1.171,-0.6984,0.1877,20.15,-4.83,-7.66,
19240,1661622391903,-1.1857,-0.7292,-0.138,16.66,-11.16,-11.77,
19241,1661622391903,-1.0187,-0.903,0.1306,14.57,-1.95,-5.85,
19242,1661622391903,-0.9616,-0.7424,0.0939,15.36,-1.18,-9.13,
19243,1661622391903,-1.0958,-0.6217,-0.0013,9.06,-5.67,-11.13,
19244,1661622391903,-0.9689,-0.9953,0.048,5.06,-17.77,-15.05,
19245,1661622391903,-1.1041,-0.7604,0.3259,4.27,-17.94,-14.15,
19246,1661622391903,-1.1251,-0.7858,0.2438,4.97,-0.34,-5.39,
19247,1661622391903,-1.2023,-0.7575,0.2302,0.18,6.51,-7.39,
19248,1661622391903,-1.0441,-0.5934,0.5725,-7.64,17.92,-0.92,
19249,1661622391903,-1.2213,-0.5021,0.3078,-14.53,-0.01,-3.65,
19250,1661622391903,-1.1989,-0.3385,0.1721,-5.23,-8.46,-1.28,
19251,1661622391903,-1.1832,-0.3371,0.3537,-2.13,9.3,1.72,
19252,1661622391903,-1.2619,-0.2931,0.5993,-11.01,20.13,-2.2,
19253,1661622391903,-1.1798,0.035,0.1564,-22.32,12.09,-2.2,
19254,1661622391903,-1.0455,-0.027,0.1364,-21.81,6.26,-4.02,
19255,1661622391903,-1.0592,0.345,0.4113,-8.72,3.64,-3.56,
19256,1661622391918,-1.0524,0.347,0.2936,-1.72,1.26,-4.47,
19257,1661622391918,-1.1325,0.1615,0.1794,1.56,3.38,-0.83,
19258,1661622391918,-1.0529,0.3997,0.4045,-3.21,9.3,-2.73,
19259,1661622391918,-1.07,0.3548,0.152,-4.63,13.62,-4.75,
19260,1661622391918,-0.9464,0.4798,-0.0345,-4.81,15.98,-6.03,
19261,1661622391918,-0.8712,0.5731,0.031,-2.72,9.22,-5.57,
19262,1661622391918,-0.8419,0.2977,0.1184,1.89,3.71,-1.56,
19263,1661622391918,-0.9635,0.3743,-0.0272,9.16,3.47,1.28,
19264,1661622391918,-0.9884,0.493,0.1711,16.67,-0.18,-1.83,
19265,1661622391918,-0.9567,0.47,0.2678,14.76,1.09,-0.09,
19266,1661622391918,-1.0568,0.5189,0.2053,14.47,-5.17,-2.73,
19267,1661622391918,-0.8849,0.3773,-0.0521,15.48,-2.71,1.63,
19268,1661622391918,-1.0714,0.4525,0.5451,16.85,11.42,-0.28,
19269,1661622391918,-0.9655,0.597,0.3474,26.36,14.72,-1.47,
19270,1661622391918,-0.9479,0.597,-0.0516,25.34,10.32,1.45,
19271,1661622391918,-0.9245,0.7552,0.2668,29.67,15.98,-2.64,
19272,1661622391918,-0.9347,0.6624,0.4567,31.75,5.41,-4.47,
19273,1661622391918,-0.9537,0.5882,-0.223,37.55,6.6,-3.1,
19274,1661622391918,-0.7745,0.7943,-0.3743,39.96,7.36,-5.66,
19275,1661622391918,-0.8961,0.7303,-0.0193,41.33,10.32,-7.75,
19276,1661622391918,-0.841,0.7762,-0.1771,44.26,-0.68,-11.04,
19277,1661622391918,-0.8947,0.6121,-0.4012,47.74,-14.55,-9.22,
19278,1661622391918,-0.7975,0.5745,-0.1487,50.36,-3.81,-11.86,
19279,1661622391918,-0.8595,0.7279,-0.0315,50.06,-5.0,-9.77,
19280,1661622391918,-0.754,0.4857,-0.1146,48.65,8.7,-11.31,
19281,1661622391918,-0.8078,0.4012,0.0969,52.85,0.08,-11.58,
19282,1661622391918,-0.9352,0.1058,-0.2332,54.24,-18.11,-12.59,
19283,1661622391918,-0.9513,0.1439,0.0847,58.16,-10.4,-9.49,
19284,1661622391918,-0.9406,0.0575,0.1418,55.35,4.57,-12.68,
19285,1661622391918,-0.9577,-0.154,-0.1976,50.87,-4.57,-11.49,
19286,1661622391918,-0.9249,-0.3864,-0.4168,49.65,-12.86,-7.66,
19287,1661622391918,-1.0812,-0.3366,0.3791,49.65,-7.03,-12.96,
19288,1661622391918,-0.9137,-0.5661,-0.1868,45.65,-17.01,-11.4,
19289,1661622391918,-1.028,-0.5368,-0.3821,42.06,-8.97,-2.83,
19290,1661622391918,-1.0831,-0.6603,0.613,36.77,-2.63,1.81,
19291,1661622391934,-1.1378,-0.694,0.1618,31.87,-8.89,-2.48,
19292,1661622391934,-1.0231,-0.7321,-0.1976,33.47,-5.67,-4.2,
19293,1661622391934,-1.1564,-0.6305,0.4201,30.18,-4.07,0.27,
19294,1661622391934,-1.0621,-0.5544,0.112,27.76,-7.7,-1.74,
19295,1661622391934,-0.9977,-0.7536,-0.1063,24.38,-9.06,2.27,
19296,1661622391934,-1.2013,-0.6408,0.2263,19.77,1.85,1.63,
19297,1661622391934,-1.1149,-0.4733,0.07,19.17,-6.94,-3.01,
19298,1661622391934,-1.1466,-0.5363,0.1018,14.87,-2.88,-2.92,
19299,1661622391934,-1.069,-0.3844,0.2326,10.86,-6.6,-5.48,
19300,1661622391934,-0.9445,-0.6877,-0.2244,10.17,-13.79,-3.65,
19301,1661622391934,-1.0866,-0.5568,0.3122,8.19,-2.97,-8.3,
19302,1661622391934,-1.1354,-0.5671,0.4191,5.68,1.09,-3.74,
19303,1661622391934,-1.11,-0.7062,0.1384,0.16,3.71,-5.66,
19304,1661622391934,-1.091,-0.5832,-0.0408,-5.74,1.35,-4.93,
19305,1661622391934,-1.1911,-0.5573,0.5085,-8.72,1.78,-7.11,
19306,1661622391934,-1.0973,-0.5597,0.2209,-11.12,-1.02,-7.85,
19307,1661622391934,-1.1046,-0.3429,-0.0638,-8.02,2.88,-4.38,
19308,1661622391934,-1.1256,-0.4821,0.4435,-10.43,6.0,-5.02,
19309,1661622391934,-1.2775,-0.3791,0.5812,-11.62,8.46,0.18,
19310,1661622391934,-1.1691,-0.2077,0.4216,-10.93,2.88,-2.55,
19311,1661622391934,-1.0123,-0.2238,0.1447,-12.02,-1.27,0.45,
19312,1661622391934,-1.0778,0.1014,0.5056,-6.63,6.67,-2.92,
19313,1661622391934,-0.9567,0.0145,0.3405,-4.54,1.35,2.82,
19314,1661622391934,-1.2096,0.0369,0.3781,-2.33,17.75,1.81,
19315,1661622391934,-1.0514,0.3197,0.3142,1.18,15.65,7.66,
19316,1661622391934,-1.069,0.2401,0.0041,-0.13,9.8,8.39,
19317,1661622391934,-0.8815,0.596,0.4548,-3.01,14.62,-0.09,
19318,1661622391934,-0.8732,0.4896,0.1496,-2.74,7.01,2.18,
