srNo,timestamp,ax,ay,az,gx,gy,gz,temp
17400,1661617064451,-1.0906,0.4964,0.1443,3.86,9.8,-10.34,
17401,1661617064451,-1.0456,0.308,0.0417,9.58,-1.71,-8.97,
17402,1661617064451,-0.9495,0.4808,0.1453,13.26,-0.85,-10.07,
17403,1661617064451,-1.1814,0.3324,0.4319,14.37,6.08,-8.79,
17404,1661617064451,-1.0745,0.3705,0.3245,12.66,2.95,-7.41,
17405,1661617064451,-0.9592,0.4584,0.2859,17.96,6.43,-5.14,
17406,1661617064451,-1.1272,0.4549,0.4763,24.28,12.76,-4.13,
17407,1661617064451,-0.8655,0.348,-0.1023,28.76,5.57,-0.12,
17408,1661617064463,-0.9978,0.4335,0.3796,32.56,25.7,-5.78,
17409,1661617064463,-0.8328,0.7313,0.3245,35.37,28.58,-7.5,
17410,1661617064463,-0.9021,0.5912,-0.3406,34.16,16.65,-12.25,
17411,1661617064463,-0.8728,0.412,-0.0139,34.56,13.35,-2.41,
17412,1661617064463,-0.761,0.8436,-0.1755,37.86,-9.66,-8.51,
17413,1661617064463,-0.843,0.7289,-0.4456,44.57,-2.8,-1.86,
17414,1661617064463,-0.9343,0.7743,-0.1306,50.87,1.44,-4.5,
17415,1661617064463,-0.7947,0.6766,0.0032,46.46,5.57,-1.77,
17416,1661617064463,-0.9202,0.576,0.0642,47.06,1.18,-8.15,
17417,1661617064463,-0.9441,0.7665,0.0652,52.55,-2.29,-14.34,
17418,1661617064463,-0.8581,0.4559,0.2278,57.77,5.83,-12.34,
17419,1661617064463,-0.8201,0.3465,0.1111,56.62,6.76,-12.43,
17420,1661617064463,-0.8616,0.326,-0.1878,52.75,3.28,-13.9,
17421,1661617064463,-0.8816,0.034,-0.1511,53.14,6.17,-13.17,
17422,1661617064463,-0.8323,-0.0958,-0.1663,54.55,2.02,-15.99,
17423,1661617064463,-0.7629,0.0482,-0.4929,53.66,-5.17,-13.07,
17424,1661617064463,-0.9416,-0.4572,-0.4338,49.76,-17.51,-8.69,
17425,1661617064463,-0.8787,-0.3966,-0.3206,46.16,-23.6,-10.34,
17426,1661617064463,-0.762,-0.5226,-0.323,48.05,-22.84,-9.61,
17427,1661617064463,-0.9641,-0.3414,0.0432,44.07,-10.33,-10.25,
17428,1661617064463,-0.9788,-0.4577,0.1511,42.83,-15.22,-7.41,
17429,1661617064463,-0.9993,-0.6447,0.1653,34.27,-20.73,-6.77,
17430,1661617064463,-1.0012,-0.3507,0.3606,37.75,-9.66,-7.69,
17431,1661617064463,-1.1262,-0.7389,0.363,36.18,7.77,-5.87,
17432,1661617064463,-0.9763,-0.4132,0.1736,29.26,1.94,-7.69,
17433,1661617064463,-1.0354,-0.2223,0.1677,26.67,-6.86,-10.79,
17434,1661617064463,-1.1164,-0.5455,0.1653,24.38,-20.81,-11.33,
17435,1661617064463,-1.1199,-0.5656,0.1174,23.88,-12.36,-5.51,
17436,1661617064463,-1.05,-0.4777,0.2253,20.37,1.77,-8.97,
17437,1661617064463,-1.0217,-0.3585,-0.1443,14.66,-8.97,-14.62,
17438,1661617064463,-1.053,-0.4777,0.155,15.26,-6.77,-11.79,
17439,1661617064463,-0.9543,-0.6315,0.1038,11.38,-8.13,-11.06,
17440,1661617064463,-1.0344,-0.423,-0.0315,5.75,1.51,-13.81,
17441,1661617064463,-1.1487,-0.6803,0.3376,6.36,4.57,-12.34,
17442,1661617064463,-1.1814,-0.7653,0.2742,4.97,-3.81,-11.7,
17443,1661617064463,-1.0066,-0.612,0.1077,4.09,-7.96,-11.15,
17444,1661617064463,-1.2341,-0.6974,0.4123,2.17,-3.55,-8.51,
17445,1661617064463,-1.1428,-0.6383,0.384,-1.51,-6.6,-7.5,
17446,1661617064463,-1.2121,-0.5206,0.5637,-7.33,1.18,-0.58,
17447,1661617064463,-1.1726,-0.2926,0.6472,-7.83,2.78,-4.32,
17448,1661617064463,-1.1409,-0.3473,0.4319,-7.43,1.09,-1.58,
17449,1661617064463,-1.2136,-0.4962,0.572,-3.62,13.95,0.43,
17450,1661617064463,-1.1345,-0.0216,0.5398,-2.61,5.15,-3.4,
17451,1661617064479,-1.2761,0.0038,0.2878,-2.43,12.85,0.8,
17452,1661617064479,-1.1067,-0.0973,0.2351,-2.41,6.67,0.89,
17453,1661617064479,-0.9421,0.2367,0.0359,-0.73,5.24,4.53,
17454,1661617064479,-1.0144,0.3133,0.1882,3.37,7.6,2.98,
17455,1661617064479,-1.1604,0.4408,0.133,6.45,3.97,-0.85,
17456,1661617064479,-0.9529,0.3246,-0.009,8.77,1.09,3.53,
17457,1661617064479,-0.989,0.3504,0.2141,9.26,5.41,-0.12,
17458,1661617064479,-1.0842,0.8461,0.5803,10.47,7.86,-0.76,
17459,1661617064479,-1.0535,0.6639,0.2839,14.97,11.49,1.33,
17460,1661617064479,-0.885,0.6322,0.303,18.97,15.98,-6.06,
17461,1661617064479,-0.9343,1.0052,0.4368,18.39,18.85,-5.14,
17462,1661617064479,-0.9978,0.8544,0.2942,26.66,11.49,-6.86,
17463,1661617064479,-0.9553,0.5277,-0.0134,37.08,20.37,-8.33,
17464,1661617064479,-0.8367,0.6947,-0.0847,36.45,26.29,-7.32,
17465,1661617064479,-0.9246,0.6249,-0.2268,32.26,14.12,-9.15,
17466,1661617064479,-0.9871,0.5257,-0.0764,33.86,3.54,-5.87,
17467,1661617064479,-0.884,0.2855,-0.0134,38.65,-4.57,-7.05,
17468,1661617064479,-0.9353,0.3724,-0.1375,40.05,-6.6,-4.13,
17469,1661617064479,-0.8953,0.6366,0.0505,40.56,-0.68,-5.05,
17470,1661617064479,-1.0798,0.2831,0.3371,43.46,3.8,2.15,
17471,1661617064479,-0.7913,0.2899,0.095,44.36,8.79,3.8,
17472,1661617064479,-0.9426,0.6175,0.0149,46.77,7.94,-0.03,
17473,1661617064479,-1.0134,0.6034,0.1467,49.96,12.0,1.51,
17474,1661617064479,-0.8342,0.4017,0.0705,49.74,4.64,-4.68,
17475,1661617064479,-0.9275,0.3856,-0.0916,52.86,6.5,2.15,
17476,1661617064479,-0.7966,0.6791,-0.4089,51.25,-6.86,-6.06,
17477,1661617064479,-0.8303,0.3993,-0.3938,58.94,-3.73,-3.58,
17478,1661617064479,-0.8274,0.1688,-0.0579,59.25,3.54,-5.6,
17479,1661617064479,-0.8235,0.433,-0.3626,49.54,-13.03,-9.43,
17480,1661617064479,-0.7102,0.3461,-0.4978,50.55,-10.4,-8.88,
17481,1661617064479,-0.8396,0.0052,0.0862,57.66,-10.24,-15.53,
17482,1661617064479,-0.8533,-0.088,-0.0525,53.14,-7.96,-11.79,
17483,1661617064479,-0.8982,-0.1554,-0.1643,50.03,-2.8,-15.26,
17484,1661617064479,-0.988,-0.2589,0.2375,46.17,4.57,-15.44,
17485,1661617064495,-1.0242,-0.6818,0.0559,44.26,-7.87,-14.98,
17486,1661617064495,-0.969,-0.5329,-0.2102,34.45,-13.45,-16.35,
17487,1661617064495,-0.9182,-0.608,0.0242,33.75,-8.13,-10.07,
17488,1661617064495,-1.1477,-1.0226,0.1301,35.17,-4.07,-5.78,
17489,1661617064495,-1.1052,-0.9484,-0.0032,29.86,-16.25,-8.15,
17490,1661617064495,-1.0183,-0.797,-0.0212,21.15,-19.21,-11.15,
17491,1661617064495,-1.1208,-0.8624,0.2922,20.57,-13.88,-5.87,
17492,1661617064495,-1.0183,-0.8414,0.1536,16.77,-13.03,-6.59,
17493,1661617064495,-1.0691,-0.8117,0.3,15.67,-8.89,-6.96,
17494,1661617064495,-0.9768,-0.8004,0.0647,15.58,-13.03,-5.14,
17495,1661617064495,-1.1291,-0.8693,0.199,11.76,0.08,-0.67,
17496,1661617064495,-1.0105,-0.4708,0.3157,7.06,-4.15,-7.87,
17497,1661617064495,-1.0666,-0.4723,0.0427,5.87,-2.29,-5.6,
17498,1661617064495,-1.0193,-0.6769,0.0173,2.78,-5.6,-2.59,
17499,1661617064495,-1.0701,-0.6701,-0.012,4.48,-8.47,-2.59,
17500,1661617064495,-1.0618,-0.4581,0.467,3.07,-6.7,-4.5,
17501,1661617064495,-1.1838,-0.2916,0.2659,2.29,-13.12,-2.5,
17502,1661617064495,-1.0964,-0.3561,0.386,0.17,-1.35,-4.32,
17503,1661617064495,-1.135,-0.2511,0.7126,-1.22,9.3,-0.94,
17504,1661617064495,-1.0383,-0.0363,0.4333,-4.72,13.19,-4.96,
17505,1661617064495,-1.0349,-0.1251,0.2903,-3.33,12.59,-3.03,
17506,1661617064495,-1.0784,-0.2028,0.4084,-1.44,14.38,-1.4,
17507,1661617064495,-1.1052,-0.026,0.3699,1.27,10.39,0.52,
17508,1661617064495,-1.1443,-0.1012,0.2927,2.87,10.23,0.06,
17509,1661617064495,-1.0593,0.0721,0.1018,-0.11,-0.18,-0.94,
17510,1661617064495,-1.0134,0.0829,0.1233,-2.63,1.85,-1.77,
17511,1661617064495,-1.1243,0.0062,0.3108,-0.12,-2.64,-0.21,
17512,1661617064495,-1.0203,0.1444,0.2649,6.38,-3.48,3.25,
17513,1661617064495,-1.1721,0.1869,0.426,8.36,-5.0,7.36,
17514,1661617064495,-0.9768,0.5419,0.6096,12.07,5.15,2.8,
17515,1661617064495,-1.0422,0.5506,0.468,11.58,2.37,5.08,
17516,1661617064495,-1.0491,0.3929,0.5315,12.68,24.43,8.27,
17517,1661617064495,-0.8928,0.4784,0.3269,17.26,10.65,5.71,
17518,1661617064510,-1.0574,0.5536,0.1838,26.35,14.96,6.63,
17519,1661617064510,-0.8957,0.6761,0.303,29.55,9.46,2.34,
17520,1661617064510,-0.8962,0.952,-0.1453,29.16,5.91,4.63,
17521,1661617064510,-0.8396,0.7132,-0.179,33.95,8.2,-0.3,
17522,1661617064510,-0.9402,0.8465,-0.1975,35.35,10.65,1.16,
17523,1661617064510,-0.718,0.9471,-0.0125,37.75,14.55,4.35,
17524,1661617064510,-0.9079,0.8988,-0.0574,38.45,2.61,2.98,
17525,1661617064510,-0.8889,0.9325,-0.1882,41.37,1.85,4.08,
17526,1661617064510,-0.9885,0.7557,0.1936,45.56,3.28,0.98,
17527,1661617064510,-0.884,0.7616,0.217,47.85,9.89,1.88,
17528,1661617064510,-0.8879,0.7792,0.01,52.76,9.72,1.7,
17529,1661617064510,-0.9607,0.4671,-0.03,53.05,13.52,-3.49,
17530,1661617064510,-0.9763,0.5409,0.133,48.86,3.04,-0.67,
17531,1661617064510,-0.9079,0.3793,-0.1555,50.75,-0.59,-3.4,
17532,1661617064510,-0.8689,0.1546,-0.1502,54.96,-2.54,1.7,
17533,1661617064510,-0.9368,0.284,-0.2395,56.04,-3.38,-5.51,
17534,1661617064510,-0.7605,0.1976,-0.2459,53.34,-4.91,-2.85,
17535,1661617064510,-1.0168,-0.133,-0.2249,50.25,-12.52,-5.14,
17536,1661617064510,-0.6809,-0.0519,-0.302,49.96,-19.88,-0.85,
17537,1661617064510,-0.905,-0.11,-0.2297,49.65,-5.6,-4.5,
17538,1661617064520,-0.7888,-0.0392,-0.1428,49.54,0.16,-5.78,
17539,1661617064520,-0.9246,-0.445,-0.343,52.23,-5.41,-6.42,
17540,1661617064521,-0.8332,-0.2794,0.0256,44.37,-12.43,-7.23,
17541,1661617064521,-1.0749,-0.2506,-0.1599,43.94,-17.61,-7.6,
17542,1661617064522,-0.9983,-0.5685,0.0032,41.37,-8.04,-4.59,
17543,1661617064522,-1.0076,-0.2975,0.1311,33.86,-9.23,-7.32,
17544,1661617064522,-1.0271,-0.2912,0.1448,34.56,-8.13,-8.24,
17545,1661617064522,-1.1047,-0.5973,0.0828,32.16,-19.8,-10.88,
17546,1661617064523,-1.0242,-0.5372,0.1614,31.03,-8.47,-13.17,
17547,1661617064523,-1.0867,-0.6564,0.2283,23.57,-6.44,-11.15,
17548,1661617064523,-1.0637,-0.4025,0.0906,21.47,-3.64,-11.88,
17549,1661617064523,-1.0974,-0.8331,0.0696,19.76,-12.43,-9.52,
17550,1661617064523,-0.9612,-0.8248,-0.1126,16.87,-9.66,-5.51,
17551,1661617064523,-0.9875,-0.6496,-0.0564,15.75,-9.99,-5.69,
17552,1661617064523,-1.1316,-1.0206,0.1179,11.67,-9.82,0.89,
17553,1661617064523,-1.1213,-0.9435,0.0476,7.46,-23.6,0.7,
17554,1661617064523,-1.0403,-0.8038,0.1008,1.97,-18.95,4.53,
17555,1661617064523,-1.2268,-0.8956,0.405,-0.43,-17.25,3.89,
17556,1661617064523,-1.0334,-0.7404,0.3142,0.47,-12.1,3.34,
17557,1661617064523,-1.2112,-0.8419,0.5715,1.56,-0.59,9.08,
17558,1661617064523,-1.1477,-0.6134,0.5818,2.36,2.61,6.08,
17559,1661617064523,-1.2292,-0.5475,0.47,-0.81,0.75,9.36,
17560,1661617064523,-1.2317,-0.5578,0.7239,-1.21,7.86,6.53,
17561,1661617064523,-1.1467,-0.1906,0.4109,-7.13,0.42,7.63,
17562,1661617064523,-1.0847,-0.2374,0.3533,-7.62,8.87,10.18,
17563,1661617064523,-1.0784,-0.1452,0.3606,-3.13,3.8,10.09,
17564,1661617064523,-1.0832,0.0282,0.2361,1.17,8.2,10.82,
17565,1661617064523,-1.1404,0.076,0.2507,0.56,4.64,14.01,
17566,1661617064523,-1.1487,0.3451,0.3445,-0.41,2.19,10.91,
17567,1661617064523,-1.0652,0.326,0.407,0.36,-0.77,11.28,
17568,1661617064523,-1.1238,0.3451,0.3557,2.18,-1.02,12.47,
17569,1661617064523,-1.0686,0.639,0.28,6.58,6.6,7.17,
17570,1661617064523,-1.0945,0.5755,0.3987,12.59,12.93,6.26,
17571,1661617064523,-1.074,0.5331,0.3723,16.16,15.72,7.45,
17572,1661617064523,-1.0559,0.6024,0.3552,14.75,15.48,1.33,
17573,1661617064523,-1.0666,0.5013,0.2175,17.67,17.58,5.08,
17574,1661617064523,-1.0051,0.6146,0.2097,19.06,14.71,3.62,
17575,1661617064523,-0.9475,0.5384,0.1667,24.57,13.52,7.54,
17576,1661617064523,-0.9797,0.4545,0.1213,26.96,6.67,2.89,
17577,1661617064523,-0.8669,0.5829,-0.0291,27.37,2.87,7.27,
17578,1661617064523,-0.9441,0.4247,0.0134,30.56,-0.26,10.18,
17579,1661617064523,-1.0657,0.5135,0.1277,34.27,10.23,12.1,
17580,1661617064523,-0.926,0.7035,0.1121,33.95,10.06,11.28,
17581,1661617064538,-0.9568,0.7176,0.2058,30.85,17.17,8.55,
17582,1661617064538,-0.8591,0.6581,-0.0359,35.87,6.93,4.17,
17583,1661617064538,-0.9568,0.4564,-0.1321,45.85,12.68,7.91,
17584,1661617064538,-0.8279,0.7899,0.1833,49.35,9.63,6.08,
17585,1661617064538,-0.8513,0.9623,-0.3323,46.16,-4.48,4.99,
17586,1661617064538,-0.8376,0.6229,-0.3142,46.45,5.66,-1.03,
17587,1661617064538,-0.8064,0.6,-0.1838,50.17,7.69,0.8,
17588,1661617064543,-0.7717,0.8373,-0.0418,47.15,10.9,-5.05,
17589,1661617064543,-0.9221,0.6996,-0.1155,51.34,-3.73,-3.67,
17590,1661617064543,-0.885,0.6346,-0.4436,55.75,-18.28,-9.24,
17591,1661617064543,-0.9221,0.3358,0.071,55.25,-6.1,-2.94,
17592,1661617064543,-0.863,0.367,0.1301,54.73,1.09,-8.51,
17593,1661617064544,-0.7981,0.3226,-0.3435,51.95,3.8,-10.88,
17594,1661617064544,-0.8279,-0.1676,-0.2805,52.06,6.17,-9.06,
17595,1661617064545,-0.8635,-0.0402,-0.1672,50.14,-6.18,-12.98,
17596,1661617064545,-0.8352,-0.3971,-0.3894,47.55,-14.72,-6.51,
17597,1661617064546,-0.9783,-0.6759,-0.1838,45.45,-16.25,-6.77,
17598,1661617064546,-0.9001,-0.4816,-0.2205,41.06,-16.32,-5.32,
17599,1661617064546,-0.9851,-0.754,-0.0784,35.86,-19.8,-3.03,
17600,1661617064546,-0.9846,-0.6608,0.3132,29.26,-9.47,-6.06,
17601,1661617064546,-1.0266,-0.8966,-0.1199,29.77,-21.5,-6.51,
17602,1661617064546,-1.012,-0.8019,0.1287,29.36,-13.88,-3.86,
17603,1661617064546,-0.9656,-0.6725,0.4177,29.66,-10.83,-2.67,
17604,1661617064546,-1.1487,-0.7926,0.2195,22.28,-18.02,0.7,
17605,1661617064546,-1.0007,-0.7106,0.0349,16.08,-15.82,2.43,
17606,1661617064546,-1.2209,-0.7243,0.2444,18.58,-8.97,1.88,
17607,1661617064546,-1.052,-0.6925,0.0066,20.46,-9.4,4.26,
17608,1661617064546,-1.0466,-0.5021,0.0608,14.86,-7.44,1.24,
17609,1661617064546,-1.0945,-0.6071,0.095,8.67,-13.03,4.81,
17610,1661617064546,-1.0002,-0.6007,-0.0647,7.44,-17.25,5.08,
17611,1661617064546,-1.0066,-0.5236,0.3064,6.79,-5.25,3.34,
17612,1661617064546,-1.0705,-0.5329,0.3059,9.55,-6.7,2.43,
17613,1661617064546,-1.0124,-0.487,0.1086,4.47,-2.38,1.24,
17614,1661617064546,-1.1174,-0.5768,0.5144,1.97,0.51,6.99,
17615,1661617064546,-1.1306,-0.5685,0.4773,0.38,-6.86,8.82,
17616,1661617064546,-1.1013,-0.591,0.2493,0.47,-5.0,9.36,
17617,1661617064546,-1.1545,-0.4406,0.5183,0.07,2.87,10.0,
17618,1661617064546,-1.1062,-0.2999,0.4299,-2.12,2.61,10.09,
17619,1661617064546,-1.1457,-0.4298,0.3772,-6.82,6.93,14.28,
17620,1661617064546,-1.238,-0.4635,0.4993,-8.53,5.83,12.91,
17621,1661617064546,-1.0637,-0.1969,0.3362,-4.04,-1.45,17.02,
17622,1661617064546,-1.2537,-0.1168,0.5749,-1.71,1.51,12.47,
17623,1661617064546,-1.1687,0.0087,0.5261,-0.63,0.25,16.67,
17624,1661617064546,-1.1135,-0.0324,0.3796,-0.41,0.67,14.01,
17625,1661617064546,-1.113,0.1019,0.4949,-1.31,9.89,11.19,
17626,1661617064546,-1.0124,0.4549,0.2908,3.58,5.07,15.84,
17627,1661617064546,-1.0867,0.3002,0.2864,8.97,5.24,17.75,
17628,1661617064546,-1.0378,0.8006,0.407,9.76,4.64,14.38,
17629,1661617064546,-1.0315,0.7884,0.2204,14.16,7.94,13.74,
17630,1661617064561,-1.0642,0.5165,0.0276,18.78,17.41,20.68,
17631,1661617064561,-1.0876,0.871,0.4177,21.47,24.52,14.1,
17632,1661617064563,-0.9099,0.8895,0.1189,21.96,16.06,17.93,
17633,1661617064563,-0.864,0.9183,-0.1282,21.76,2.02,12.1,
17634,1661617064563,-0.9329,1.0336,0.0427,26.27,4.57,7.72,
17635,1661617064563,-0.9734,0.8299,0.2141,35.37,5.57,10.64,
17636,1661617064563,-0.8904,0.9212,-0.1721,38.65,11.25,6.53,
17637,1661617064564,-0.9778,0.8837,0.092,38.16,22.16,6.99,
17638,1661617064564,-1.0139,0.6122,0.093,38.25,16.99,3.25,
17639,1661617064565,-0.9509,0.7137,-0.0017,36.16,11.66,-3.13,
17640,1661617064565,-0.8371,0.7435,-0.1814,40.25,2.44,1.16,
17641,1661617064566,-0.9065,0.4457,0.0134,45.96,2.61,-2.32,
17642,1661617064566,-0.9299,0.5262,-0.0491,49.13,-1.02,3.16,
17643,1661617064566,-1.0266,0.2679,-0.0847,47.55,1.09,1.97,
17644,1661617064566,-1.0251,0.3085,-0.0784,44.26,5.41,-0.76,
17645,1661617064566,-0.7834,0.5194,-0.0647,41.55,1.01,0.06,
17646,1661617064566,-0.9856,0.3861,0.0061,45.53,1.68,-1.77,
17647,1661617064566,-0.7854,0.2425,-0.448,51.95,-11.43,3.71,
17648,1661617064566,-0.8845,0.1141,-0.135,52.05,-8.47,1.51,
17649,1661617064566,-0.9665,0.1546,0.177,46.45,-10.33,1.07,
17650,1661617064566,-0.8992,0.3187,-0.3474,51.33,-8.63,-2.5,
17651,1661617064566,-0.8259,-0.0329,-0.4363,53.54,2.54,-0.3,
17652,1661617064566,-0.8093,0.1288,-0.1526,43.67,-4.57,-4.04,
17653,1661617064566,-0.824,0.0077,-0.3728,43.76,-17.01,-2.23,
17654,1661617064566,-0.9084,-0.2374,-0.1878,47.35,-15.22,-8.6,
17655,1661617064566,-0.8713,-0.1984,-0.0681,47.35,-7.27,-10.88,
17656,1661617064566,-1.0134,-0.4088,0.1008,38.77,-9.3,-2.85,
17657,1661617064566,-0.9924,-0.4186,0.0246,32.47,-10.24,-8.97,
17658,1661617064566,-0.9192,-0.5519,-0.0222,34.44,-6.01,-5.51,
17659,1661617064566,-0.8865,-0.7892,-0.1082,33.55,-8.47,-7.5,
17660,1661617064566,-1.0759,-0.7404,0.1223,28.07,-8.13,-4.59,
17661,1661617064566,-1.1174,-1.0221,0.1799,22.17,-12.19,-2.76,
17662,1661617064566,-1.0579,-0.9103,-0.0003,16.86,-15.06,1.79,
17663,1661617064566,-1.0691,-0.8288,0.092,13.38,-15.65,2.34,
17664,1661617064566,-1.072,-1.0011,0.0901,9.87,-12.86,7.36,
17665,1661617064566,-0.949,-0.9025,0.0906,6.99,-13.45,7.54,
17666,1661617064566,-1.1199,-0.8502,0.2058,6.77,-9.56,9.36,
17667,1661617064566,-1.1311,-0.7799,0.1824,4.97,-14.05,8.18,
17668,1661617064566,-1.0593,-0.6588,0.342,2.97,-6.86,6.08,
17669,1661617064566,-1.0388,-0.5714,0.4924,3.07,-1.71,7.72,
17670,1661617064566,-1.0452,-0.6832,-0.1121,3.26,-11.76,2.98,
17671,1661617064566,-1.1164,-0.6842,0.5388,2.36,-1.35,12.91,
17672,1661617064566,-1.0676,-0.4074,0.7141,2.09,-8.72,9.36,
17673,1661617064581,-1.1658,-0.2775,0.175,-1.53,-9.82,11.28,
17674,1661617064581,-1.1916,-0.3908,0.3274,-3.63,1.61,13.28,
17675,1661617064581,-1.1721,-0.1207,0.7673,-5.53,7.43,13.19,
17676,1661617064581,-1.1238,-0.0592,0.447,-8.03,2.95,11.1,
17677,1661617064581,-1.1365,0.076,0.3108,-6.43,-1.11,9.45,
17678,1661617064581,-1.0217,0.2001,0.428,-1.22,6.43,8.91,
17679,1661617064581,-1.1423,0.1293,0.5295,-0.31,8.37,11.92,
17680,1661617064581,-1.1267,0.3246,0.2756,3.26,13.52,9.26,
17681,1661617064581,-1.0779,0.3382,0.1858,4.68,15.64,8.82,
17682,1661617064581,-0.9978,0.2665,0.2346,2.87,22.16,9.81,
17683,1661617064581,-1.0749,0.5047,0.2522,2.47,7.53,4.81,
17684,1661617064581,-1.1345,0.2738,0.1995,8.47,7.18,12.29,
17685,1661617064581,-1.0994,0.2103,0.2214,9.47,-0.68,7.54,
17686,1661617064581,-1.0071,0.5179,0.2561,13.56,-0.52,6.35,
17687,1661617064581,-1.1955,0.4056,0.5012,14.98,2.28,12.29,
17688,1661617064581,-1.0671,0.5126,0.3567,15.56,2.87,10.09,
17689,1661617064581,-1.01,0.5257,0.2942,16.48,8.2,14.47,
17690,1661617064581,-1.1282,0.5492,0.4519,21.76,16.41,9.08,
17691,1661617064581,-0.9465,0.5775,-0.0696,27.88,10.99,11.46,
17692,1661617064581,-1.0012,0.6522,0.1633,32.85,19.95,12.01,
17693,1661617064581,-0.8616,1.034,0.1282,34.96,14.88,12.01,
17694,1661617064581,-0.948,0.743,-0.3709,35.55,14.03,14.19,
17695,1661617064581,-0.8826,0.6351,-0.1321,34.07,25.62,14.65,
17696,1661617064581,-0.7829,1.0458,-0.0276,30.17,0.42,8.91,
17697,1661617064581,-0.7532,0.9652,-0.4768,36.96,-6.27,8.18,
17698,1661617064581,-0.9138,0.8426,-0.0198,46.25,1.35,6.81,
17699,1661617064581,-0.8376,0.9212,-0.0252,51.85,6.0,2.34,
17700,1661617064581,-0.8943,0.7977,-0.0359,48.86,8.2,0.8,
17701,1661617064581,-0.9099,0.826,-0.0613,44.25,5.91,-4.77,
17702,1661617064581,-0.8694,0.6664,-0.0032,49.54,11.25,0.43,
17703,1661617064581,-0.802,0.4129,-0.0667,50.05,6.43,-2.94,
17704,1661617064581,-0.8435,0.5526,-0.2864,55.05,2.19,-4.77,
17705,1661617064581,-0.8513,0.37,-0.2527,56.94,0.92,-4.32,
17706,1661617064581,-0.8625,-0.0094,-0.1589,51.33,-6.86,-3.86,
17707,1661617064581,-0.759,0.2381,-0.4021,45.15,-9.73,-5.32,
17708,1661617064581,-0.8826,-0.3048,-0.4295,47.94,-11.68,-3.4,
17709,1661617064597,-0.8469,-0.3175,-0.2424,46.45,-10.59,-9.24,
17710,1661617064597,-0.655,-0.2916,-0.3157,43.15,-22.84,-7.69,
17711,1661617064597,-0.9861,-0.3859,-0.0911,43.26,-11.85,-6.06,
17712,1661617064597,-0.9231,-0.547,-0.1433,41.55,-20.21,-5.23,
17713,1661617064597,-1.0349,-0.8102,0.0745,32.27,-15.82,2.89,
17714,1661617064597,-0.9123,-0.3541,0.1677,31.95,-7.96,0.89,
17715,1661617064597,-1.0681,-0.7526,0.0466,28.85,-8.63,4.81,
17716,1661617064597,-1.0183,-0.8913,0.1628,26.98,-13.2,-2.76,
17717,1661617064597,-0.9636,-0.4767,0.0852,23.95,-22.67,-0.21,
17718,1661617064597,-1.1018,-0.6754,0.1321,27.68,-9.82,3.62,
17719,1661617064597,-1.1672,-0.716,0.1799,22.75,-12.43,5.62,
17720,1661617064597,-1.0505,-0.6085,0.1892,13.76,-7.37,2.8,
17721,1661617064597,-1.0056,-0.5392,0.0466,10.86,-14.13,4.53,
17722,1661617064597,-0.9758,-0.5412,0.0715,14.05,-7.44,3.16,
17723,1661617064597,-1.0022,-0.7687,0.1272,12.68,-7.53,3.71,
17724,1661617064597,-0.9314,-0.7008,-0.053,8.07,-7.2,5.08,
17725,1661617064597,-1.0959,-0.5612,0.1975,5.77,-6.27,0.98,
17726,1661617064597,-1.1941,-0.9137,0.2844,3.87,-5.67,2.98,
17727,1661617064597,-0.967,-0.5871,0.1999,-2.03,-4.41,4.44,
17728,1661617064597,-1.008,-0.5148,0.282,-3.33,-6.34,4.26,
17729,1661617064597,-1.2488,-0.7047,0.4314,-1.82,-4.24,7.27,
17730,1661617064597,-1.0369,-0.6525,0.3708,-2.21,-3.48,10.64,
17731,1661617064597,-1.279,-0.5084,0.8132,-7.54,2.54,11.65,
17732,1661617064597,-1.2209,-0.3258,0.5525,-7.43,-3.48,9.01,
17733,1661617064597,-1.2214,-0.4269,0.5539,-6.01,10.32,11.37,
17734,1661617064597,-1.0813,-0.2457,0.6955,-3.92,14.88,12.29,
17735,1661617064597,-1.0598,0.1717,0.2888,-3.92,8.62,11.83,
17736,1661617064597,-1.2346,-0.173,0.3874,-1.13,14.79,13.83,
17737,1661617064597,-1.1438,0.0741,0.322,1.88,2.87,13.09,
17738,1661617064611,-1.0217,0.5189,0.2336,-2.21,3.28,9.54,
17739,1661617064611,-1.0828,0.5575,0.2776,0.69,2.02,11.55,
17740,1661617064611,-1.1262,0.4896,0.1682,2.17,4.05,9.81,
17741,1661617064611,-0.9612,0.4203,0.1853,4.36,4.4,15.48,
17742,1661617064612,-1.0686,0.9828,0.4734,8.77,4.21,14.19,
17743,1661617064612,-1.0901,1.0336,0.4485,16.05,5.07,10.09,
17744,1661617064613,-1.1223,0.5873,0.2722,19.06,8.46,12.47,
17745,1661617064613,-0.9968,0.8763,0.364,17.06,13.28,7.08,
17746,1661617064614,-1.0183,0.9662,0.2473,16.97,18.51,0.06,
17747,1661617064614,-0.907,0.7601,0.0745,25.16,29.18,6.72,
17748,1661617064614,-0.8928,0.6966,-0.0291,30.84,25.46,4.17,
17749,1661617064615,-0.9123,0.7699,-0.0388,29.66,14.03,8.09,
17750,1661617064615,-1.0803,0.5873,-0.179,31.28,-4.15,7.45,
17751,1661617064616,-1.0076,0.5301,0.0339,32.96,1.61,5.53,
17752,1661617064616,-0.9529,0.4647,0.0344,34.47,2.28,8.09,
17753,1661617064617,-0.9744,0.742,-0.0432,33.55,2.87,6.99,
17754,1661617064617,-0.7458,0.6971,0.1409,37.75,2.87,8.55,
17755,1661617064618,-0.9719,0.3534,0.2312,42.05,8.37,6.9,
17756,1661617064618,-0.9011,0.4662,0.0163,44.65,14.21,5.8,
17757,1661617064618,-0.8655,0.7406,-0.1082,46.26,16.32,5.08,
17758,1661617064619,-0.904,0.7294,0.1477,43.47,7.86,2.06,
17759,1661617064619,-0.8205,0.5619,-0.2747,40.85,-2.8,-1.95,
17760,1661617064620,-0.8933,0.473,-0.1301,46.83,8.03,1.88,
17761,1661617064620,-0.8186,0.744,-0.2839,52.44,-3.31,-4.22,
17762,1661617064621,-0.7419,0.6498,-0.5427,54.95,-0.77,-0.85,
17763,1661617064621,-0.7693,0.3026,-0.0935,49.65,-3.48,-9.88,
17764,1661617064622,-0.7717,0.5326,-0.4539,47.74,-12.02,-10.16,
17765,1661617064622,-0.7517,0.1625,-0.3103,50.64,-4.48,-13.44,
17766,1661617064623,-0.8484,0.078,-0.1018,49.83,-3.64,-10.79,
17767,1661617064623,-0.8733,-0.0983,-0.2615,48.45,-5.0,-10.97,
17768,1661617064625,-0.9055,-0.3131,-0.198,48.64,-6.6,-9.15,
17769,1661617064625,-0.9656,-0.4645,0.0759,46.25,-7.44,-12.07,
17770,1661617064625,-1.0017,-0.7121,0.0329,41.66,-14.98,-6.06,
17771,1661617064625,-1.0403,-0.737,-0.1072,27.75,-12.78,-7.6,
17772,1661617064626,-0.8718,-0.6212,0.0085,26.78,-6.44,-4.22,
17773,1661617064626,-1.094,-1.048,0.1204,24.47,-9.66,-4.04,
17774,1661617064626,-1.0159,-0.9845,-0.0369,21.86,-23.36,-2.94,
17775,1661617064628,-1.0608,-0.9459,0.1501,19.06,-18.11,3.71,
17776,1661617064628,-1.0491,-0.819,0.2439,16.46,-16.32,1.97,
17777,1661617064629,-1.1545,-0.7521,0.1233,12.88,-15.32,2.52,
17778,1661617064629,-1.031,-0.775,0.2483,11.08,-9.06,4.9,
17779,1661617064629,-0.9626,-0.7247,0.053,10.66,-12.86,8.73,
17780,1661617064629,-1.0618,-0.7047,0.0554,9.18,-5.08,7.72,
17781,1661617064630,-0.9997,-0.5138,0.3049,8.38,-8.3,5.08,
17782,1661617064630,-1.0168,-0.3961,0.133,5.17,-6.44,2.7,
17783,1661617064631,-0.9997,-0.5231,0.072,4.45,-5.93,6.26,
17784,1661617064631,-1.0569,-0.508,0.0413,2.17,-8.13,9.63,
17785,1661617064632,-1.0261,-0.3913,0.4426,2.87,-2.88,12.56,
17786,1661617064632,-1.1238,-0.216,0.4255,-0.03,-6.18,9.45,
17787,1661617064632,-1.0832,-0.1583,0.3411,-0.52,-2.54,6.08,
17788,1661617064632,-1.1965,-0.2804,0.6663,-1.71,4.98,6.17,
17789,1661617064632,-1.0871,-0.1828,0.6247,-5.11,11.92,3.8,
17790,1661617064632,-1.0198,0.0248,0.4045,-3.53,13.35,4.08,
17791,1661617064632,-1.05,-0.0548,0.3547,-4.12,16.91,6.53,
17792,1661617064632,-1.0535,0.0204,0.2825,-2.63,11.75,1.97,
17793,1661617064632,-1.137,-0.068,0.3586,-0.83,10.06,6.44,
17794,1661617064632,-1.1579,0.0111,0.2732,-0.93,-2.8,4.26,
17795,1661617064632,-1.1062,0.1996,0.1062,-0.54,-2.38,5.25,
17796,1661617064632,-1.1448,0.0443,0.4216,0.88,1.25,9.36,
17797,1661617064632,-1.1633,0.2357,0.3845,2.18,-0.52,9.81,
17798,1661617064632,-0.9626,0.2972,0.2458,4.68,-1.78,12.84,
17799,1661617064632,-1.2424,0.3441,0.447,6.48,6.26,15.66,
17800,1661617064632,-1.0413,0.6517,0.6296,9.35,7.94,9.81,
17801,1661617064632,-1.1316,0.5438,0.4138,15.17,6.34,12.74,
17802,1661617064632,-1.113,0.517,0.3909,14.77,15.05,14.47,
17803,1661617064632,-0.9719,0.5775,0.1789,18.16,17.75,13.92,
17804,1661617064632,-0.9646,0.68,0.2141,22.98,29.42,11.92,
17805,1661617064632,-0.9119,1.0487,-0.2429,25.16,8.79,5.62,
17806,1661617064632,-0.9094,0.847,-0.1604,27.66,8.03,8.73,
17807,1661617064632,-0.9001,0.767,-0.0291,32.76,-8.72,9.81,
17808,1661617064632,-0.9778,0.9691,-0.1179,34.65,-3.14,6.99,
17809,1661617064632,-0.8909,0.9237,-0.032,37.14,2.37,7.63,
17810,1661617064632,-0.9514,0.9662,-0.0779,37.66,11.25,1.24,
17811,1661617064632,-0.9582,0.8392,0.1301,39.87,12.18,2.89,
17812,1661617064632,-1.009,0.7157,0.2722,44.36,12.93,-3.67,
17813,1661617064632,-0.9075,0.7538,0.1101,47.04,7.94,0.43,
17814,1661617064632,-0.9646,0.516,-0.0046,48.55,11.49,3.16,
17815,1661617064632,-0.9748,0.5409,0.1042,48.25,13.19,-0.76,
17816,1661617064632,-0.8957,0.4906,-0.2561,42.36,5.07,4.08,
17817,1661617064632,-0.8264,0.265,-0.2576,42.56,2.28,-4.04,
17818,1661617064632,-0.884,0.2464,-0.3069,49.45,-11.93,-2.76,
17819,1661617064632,-0.6833,0.367,-0.3157,50.64,-4.74,-3.03,
17820,1661617064632,-0.9685,0.0257,-0.3137,49.35,-9.56,-0.58,
17821,1661617064648,-0.738,0.0384,-0.3704,42.56,-10.75,-1.13,
17822,1661617064648,-0.9289,-0.0597,-0.1546,41.37,-16.51,-2.76,
17823,1661617064648,-0.823,0.0834,-0.0647,47.85,-9.66,-10.25,
17824,1661617064648,-0.8801,-0.2125,-0.4524,49.35,-14.29,-7.32,
17825,1661617064650,-0.8879,-0.2584,0.114,41.15,0.32,-5.14,
17826,1661617064650,-1.008,-0.1886,-0.1736,36.07,-13.79,-11.52,
17827,1661617064650,-0.9934,-0.6671,-0.0676,41.46,-11.68,-4.41,
17828,1661617064650,-1.0085,-0.487,0.0237,29.48,-12.1,-9.88,
17829,1661617064651,-1.0339,-0.2526,0.1619,25.76,-8.56,-8.97,
17830,1661617064651,-1.0159,-0.612,0.0583,27.16,-14.89,-6.06,
17831,1661617064652,-0.9929,-0.5748,0.0203,28.47,-9.3,-6.33,
17832,1661617064652,-0.9934,-0.757,0.0808,22.86,-10.59,-2.59,
17833,1661617064653,-1.0681,-0.5792,0.1374,20.17,-4.74,-8.42,
17834,1661617064653,-1.0823,-0.7584,0.1389,18.57,-5.93,-5.05,
17835,1661617064653,-0.9495,-0.8981,-0.1614,10.05,-9.9,-3.95,
17836,1661617064653,-0.9368,-0.591,0.0359,8.07,-16.41,-3.58,
17837,1661617064653,-1.0188,-0.7526,0.175,9.87,-11.17,3.53,
17838,1661617064653,-1.1023,-0.9977,0.0408,7.17,-16.84,-2.04,
17839,1661617064653,-0.9646,-0.7028,-0.0198,2.27,-6.34,-0.94,
17840,1661617064653,-1.2253,-0.796,0.5539,-3.62,-9.56,0.34,
17841,1661617064653,-1.0486,-0.6217,0.3098,-5.83,-16.51,4.08,
17842,1661617064653,-1.1218,-0.5802,0.3801,-2.92,-9.73,8.64,
17843,1661617064653,-1.1038,-0.3888,0.6155,-0.03,0.75,6.72,
17844,1661617064653,-1.1809,-0.3663,0.428,-2.53,4.81,5.8,
17845,1661617064653,-1.241,-0.526,0.5295,-4.41,18.94,8.64,
17846,1661617064653,-1.1125,-0.0592,0.4973,-8.44,7.18,5.16,
17847,1661617064653,-1.0798,0.0819,0.3845,-8.62,2.37,6.63,
17848,1661617064653,-1.1199,-0.0299,0.4084,-6.82,-5.34,5.16,
17849,1661617064662,-1.0632,0.0843,0.2488,-4.43,-3.64,4.17,
17850,1661617064662,-1.0305,0.2323,0.2703,0.49,0.08,9.54,
17851,1661617064662,-1.1174,0.432,0.3088,2.68,5.15,7.17,
17852,1661617064662,-1.0788,0.5331,0.4216,2.17,8.7,8.46,
17853,1661617064662,-1.0935,0.4681,0.4216,1.27,13.1,4.9,
17854,1661617064662,-1.0481,0.6835,0.2429,0.69,10.9,4.53,
17855,1661617064662,-1.0305,0.6341,0.2976,4.16,14.38,3.62,
17856,1661617064662,-0.9997,0.5536,0.3303,10.59,14.96,3.25,
17857,1661617064662,-0.9807,0.6429,0.2683,15.58,9.8,2.52,
17858,1661617064662,-1.0886,0.6351,0.2268,17.26,5.07,5.25,
17859,1661617064662,-1.0735,0.5511,0.2068,18.07,3.54,5.16,
17860,1661617064662,-0.9866,0.5721,0.1858,19.35,1.61,7.63,
17861,1661617064662,-0.8957,0.5419,0.05,21.68,2.37,3.8,
17862,1661617064662,-0.9573,0.5619,-0.0794,25.36,4.47,10.45,
17863,1661617064662,-0.9612,0.4725,0.1614,30.56,9.56,12.29,
17864,1661617064662,-1.0525,0.4359,0.2063,32.06,3.12,12.1,
17865,1661617064662,-0.9685,0.6044,0.0046,28.58,-3.31,12.19,
17866,1661617064662,-1.0886,0.6942,0.2185,28.87,4.64,5.08,
17867,1661617064662,-0.9685,0.6879,0.2146,34.06,11.66,9.63,
17868,1661617064662,-0.8411,0.6268,-0.2131,41.96,-2.64,6.08,
17869,1661617064662,-1.0085,0.4515,-0.0359,42.36,12.85,7.91,
17870,1661617064662,-0.8664,0.8763,0.1492,44.05,4.98,5.25,
17871,1661617064662,-0.8562,0.7738,-0.2976,46.35,8.46,-0.85,
17872,1661617064662,-0.866,0.6156,-0.22,46.97,0.25,3.16,
17873,1661617064662,-0.9372,0.745,-0.1721,41.98,-5.5,0.61,
17874,1661617064675,-0.7649,0.7665,-0.0066,44.46,-4.07,3.8,
17875,1661617064675,-0.8606,0.6971,-0.3557,50.15,-5.17,1.33,
17876,1661617064675,-0.7078,0.5824,-0.387,54.05,-6.44,-1.77,
17877,1661617064675,-0.8352,0.2982,0.0984,52.86,-0.52,-1.03,
17878,1661617064675,-0.7742,0.3451,-0.1951,50.95,-4.15,-2.5,
17879,1661617064675,-0.8523,0.1249,-0.4158,50.35,-10.33,-5.14,
17880,1661617064675,-0.864,-0.1862,-0.2507,49.74,-5.25,-5.05,
17881,1661617064675,-0.8957,-0.0792,-0.1419,44.77,-12.19,-6.15,
17882,1661617064675,-0.8723,-0.5929,-0.2058,42.25,-6.7,-7.23,
17883,1661617064675,-0.9675,-0.5812,-0.1858,41.66,-12.78,-8.88,
17884,1661617064675,-0.8127,-0.5851,-0.2102,34.76,-18.54,-5.87,
17885,1661617064675,-1.0871,-0.7658,0.1121,29.55,-18.95,-10.34,
17886,1661617064675,-0.926,-0.6671,0.0891,25.27,-15.15,-6.86,
17887,1661617064675,-1.0315,-0.8776,-0.0955,22.17,-16.84,-3.77,
17888,1661617064675,-0.9285,-0.6544,0.241,22.46,-11.33,-1.68,
17889,1661617064675,-1.0559,-0.7106,0.0549,23.38,-12.19,-0.21,
17890,1661617064675,-0.9421,-0.6178,0.1882,17.58,-12.36,1.07,
17891,1661617064675,-1.2175,-0.5343,0.2556,13.46,-15.82,-0.58,
17892,1661617064675,-1.1306,-0.7243,0.2004,13.06,-15.65,3.25,
17893,1661617064675,-0.988,-0.567,-0.012,7.57,-16.51,0.8,
17894,1661617064675,-1.0691,-0.3444,0.2834,5.96,-2.04,1.33,
17895,1661617064675,-0.9719,-0.4996,-0.0671,6.27,-11.59,2.52,
17896,1661617064675,-0.9431,-0.4098,0.1423,3.87,-0.26,3.8,
17897,1661617064675,-1.0486,-0.4279,0.4626,0.27,-3.55,1.88,
17898,1661617064675,-1.092,-0.4088,0.1409,0.67,-12.62,-0.76,
17899,1661617064675,-1.0007,-0.362,0.1643,0.36,-2.45,-3.03,
17900,1661617064675,-1.0417,-0.4664,0.4001,0.17,1.51,-0.3,
17901,1661617064675,-1.0593,-0.4728,0.197,-3.33,-2.21,0.8,
17902,1661617064675,-1.1985,-0.4435,0.4182,-6.53,-2.88,0.16,
17903,1661617064675,-1.2004,-0.3815,0.4983,-7.52,-5.17,3.71,
17904,1661617064675,-1.0906,-0.1979,0.3762,-8.1,1.35,5.16,
17905,1661617064675,-1.2341,-0.2692,0.6291,-9.13,9.89,4.63,
17906,1661617064675,-1.0906,-0.1764,0.4446,-6.81,4.21,4.08,
17907,1661617064675,-1.0422,0.0477,0.4412,-5.81,6.93,5.62,
17908,1661617064675,-1.2117,0.1644,0.5369,-4.72,0.16,4.9,
17909,1661617064675,-1.1101,0.2025,0.407,0.56,3.64,7.36,
17910,1661617064675,-1.0818,0.138,0.4343,1.66,10.73,12.29,
17911,1661617064675,-0.9436,0.5409,0.2317,0.09,6.84,7.54,
17912,1661617064675,-1.0041,0.5648,0.0847,3.77,8.79,7.82,
17913,1661617064690,-0.9665,0.5023,0.3528,7.57,21.3,5.08,
17914,1661617064690,-0.9231,0.8124,0.2058,7.89,12.76,4.26,
17915,1661617064690,-0.9431,0.7289,-0.0266,14.46,12.0,6.99,
17916,1661617064690,-0.9524,0.6024,0.2439,16.25,10.9,6.99,
17917,1661617064690,-1.0256,0.9442,0.5442,12.79,-2.64,4.63,
17918,1661617064690,-0.928,0.8495,-0.0032,13.26,-6.6,5.25,
17919,1661617064690,-0.885,0.9349,-0.0574,23.05,4.9,7.91,
17920,1661617064690,-0.8498,1.0121,0.1311,33.46,26.89,8.82,
17921,1661617064690,-0.9592,0.7713,0.1379,37.66,23.67,9.72,
17922,1661617064690,-0.9353,0.9198,-0.134,34.58,15.98,1.88,
17923,1661617064690,-1.0691,0.7411,0.0408,31.55,0.16,3.99,
17924,1661617064690,-1.0647,0.5545,0.0622,35.95,2.44,2.7,
17925,1661617064690,-0.9944,0.6449,0.0037,39.17,-3.05,-1.77,
17926,1661617064690,-0.8616,0.5892,-0.0593,42.45,0.42,3.16,
17927,1661617064690,-0.9363,0.4359,-0.012,44.45,-1.95,-0.12,
17928,1661617064690,-0.9084,0.3514,0.0476,42.97,0.08,2.43,
17929,1661617064690,-0.9836,0.2015,0.0867,46.25,0.08,3.62,
17930,1661617064690,-0.9241,0.2899,0.0032,42.66,1.44,5.53,
17931,1661617064690,-0.8674,0.4999,-0.0076,40.36,0.16,4.81,
17932,1661617064690,-0.9773,0.4037,-0.0232,43.27,3.54,0.61,
17933,1661617064690,-0.7971,0.3763,-0.3128,45.55,-15.99,6.81,
17934,1661617064690,-0.865,0.1424,-0.4451,51.85,-7.87,3.71,
17935,1661617064690,-0.8542,0.2997,0.0613,49.67,-6.44,1.7,
17936,1661617064690,-0.8625,0.3524,-0.5169,50.35,-7.96,-5.69,
17937,1661617064690,-0.8118,0.0209,-0.3816,46.84,-9.82,-2.59,
17938,1661617064690,-0.8616,0.1205,-0.1443,39.75,-12.02,-1.86,
17939,1661617064690,-0.9177,-0.1886,-0.238,43.75,-16.41,-2.67,
17940,1661617064690,-1.0227,-0.2565,-0.0828,45.65,-9.82,-6.06,
17941,1661617064690,-0.9578,-0.1803,0.0066,42.07,-6.34,-8.79,
17942,1661617064690,-1.0579,-0.4235,0.1023,35.35,-6.27,-8.42,
17943,1661617064690,-1.0378,-0.4664,0.0745,31.75,-4.67,-10.16,
17944,1661617064690,-0.9758,-0.671,0.1174,28.06,-6.18,-8.6,
17945,1661617064690,-0.9646,-0.7247,-0.116,24.26,-12.26,-5.14,
17946,1661617064690,-1.0476,-0.6437,0.0188,23.07,-10.16,-7.69,
17947,1661617064690,-1.093,-0.9811,0.0637,25.37,-14.48,-6.96,
17948,1661617064706,-1.009,-0.8302,-0.0867,15.87,-18.11,-5.96,
17949,1661617064706,-1.1223,-0.8151,0.1204,8.47,-18.95,-2.5,
17950,1661617064706,-1.0637,-0.8126,0.1545,3.39,-19.04,1.07,
17951,1661617064706,-0.9636,-0.757,0.1379,4.68,-16.16,-1.68,
17952,1661617064706,-1.1467,-0.7838,0.2493,1.68,-9.47,3.99,
17953,1661617064706,-0.9944,-0.7345,0.1931,-1.44,-10.16,0.43,
17954,1661617064706,-1.1872,-0.4772,0.5539,-2.23,-6.94,4.99,
17955,1661617064706,-1.0881,-0.3541,0.2829,-3.63,-11.26,-2.23,
17956,1661617064706,-1.0769,-0.3971,-0.0759,-3.43,-15.32,3.53,
17957,1661617064706,-1.0891,-0.2926,0.6189,-5.31,12.18,8.18,
17958,1661617064706,-1.1052,-0.1212,0.49,-7.33,4.9,6.9,
17959,1661617064706,-1.0906,-0.0997,-0.0139,-2.41,-1.95,5.43,
17960,1661617064706,-1.1262,-0.0714,0.2932,-4.53,-10.4,0.8,
17961,1661617064706,-1.1321,0.0262,0.6228,-5.92,-9.73,3.99,
17962,1661617064706,-1.239,-0.0455,0.5017,-7.11,0.08,4.26,
17963,1661617064706,-1.1545,0.1083,0.365,-7.31,9.39,1.33,
17964,1661617064706,-0.8674,0.3236,0.3108,-7.22,17.67,5.98,
17965,1661617064706,-0.9734,0.2972,0.4543,-6.12,20.54,5.16,
17966,1661617064716,-1.029,0.2738,0.3371,-2.43,14.03,0.52,
17967,1661617064716,-0.9929,0.2167,0.1472,0.78,3.97,6.26,
17968,1661617064716,-1.0017,0.3817,0.1951,0.09,-1.11,4.08,
17969,1661617064716,-1.0417,0.6957,0.2937,2.78,-5.41,0.34,
17970,1661617064716,-1.0496,0.3949,0.2131,4.07,-0.77,4.72,
17971,1661617064716,-0.9807,0.3353,0.0671,7.78,-4.67,-2.85,
17972,1661617064716,-0.8865,0.4852,0.1247,8.86,2.54,-0.58,
17973,1661617064716,-1.1951,0.451,0.6907,10.16,9.63,2.61,
17974,1661617064716,-1.0027,0.5829,0.2288,13.18,2.78,2.43,
17975,1661617064716,-0.8855,0.6087,0.0954,15.58,12.68,7.82,
17976,1661617064716,-1.0539,0.5575,0.3411,20.66,12.76,6.63,
17977,1661617064716,-0.9353,0.4305,-0.0559,24.26,11.49,13.46,
17978,1661617064716,-0.9856,0.5062,0.3552,27.37,17.67,10.64,
17979,1661617064716,-0.9333,1.0106,-0.0994,29.34,-0.09,8.46,
17980,1661617064716,-0.9314,0.8343,-0.3684,34.85,-1.71,10.55,
17981,1661617064716,-0.9075,0.557,0.1448,34.56,6.6,8.82,
17982,1661617064716,-0.7751,0.9515,-0.0818,31.36,-2.64,5.98,
17983,1661617064716,-0.8337,0.8324,-0.2747,35.86,1.09,1.6,
17984,1661617064716,-0.906,0.8661,0.0227,43.97,0.75,1.88,
17985,1661617064716,-0.8713,0.8558,0.0681,48.86,-0.68,-0.39,
17986,1661617064716,-0.9348,0.5355,0.0637,48.16,-0.59,-2.41,
17987,1661617064716,-0.9748,0.7308,0.0325,48.55,1.09,0.61,
17988,1661617064716,-0.9275,0.4711,0.0832,48.86,8.37,0.43,
17989,1661617064716,-0.8191,0.2992,0.0027,47.35,8.03,-3.22,
17990,1661617064716,-0.7952,0.4828,-0.2893,46.35,4.21,-3.58,
17991,1661617064716,-0.7986,0.1127,-0.2263,49.85,-3.14,-4.32,
17992,1661617064716,-0.9094,-0.0773,-0.1755,48.95,-11.0,-3.86,
17993,1661617064727,-0.8362,0.1747,-0.3831,46.05,-10.66,-5.69,
17994,1661617064727,-0.9841,-0.3898,-0.3303,45.55,-14.48,-2.32,
17995,1661617064727,-0.8796,-0.3053,-0.1462,39.87,-15.39,-7.5,
17996,1661617064728,-0.883,-0.3644,-0.2493,40.25,-19.04,-4.22,
17997,1661617064728,-1.0129,-0.3878,-0.0549,39.95,-15.74,-1.22,
17998,1661617064729,-1.1033,-0.6149,0.0261,40.66,-11.85,1.33,
17999,1661617064729,-1.0373,-0.6818,0.1345,33.35,-8.56,2.7,
18000,1661617064729,-0.9802,-0.4396,0.114,21.56,-20.9,-0.94,
18001,1661617064730,-1.218,-0.5211,0.1199,22.87,-16.32,1.33,
18002,1661617064730,-1.0559,-0.6583,0.1623,23.67,-7.27,0.43,
18003,1661617064730,-0.9465,-0.2023,-0.0989,20.46,-7.2,-1.49,
18004,1661617064730,-1.0823,-0.5412,0.1711,17.26,-15.22,-0.12,
18005,1661617064730,-1.0911,-0.5329,0.0349,15.56,-23.86,0.98,
18006,1661617064730,-1.0549,-0.4489,0.0862,14.36,-11.93,3.71,
18007,1661617064730,-1.0842,-0.2418,0.0832,7.46,-10.33,1.33,
18008,1661617064730,-1.0686,-0.2194,0.0867,4.67,-6.51,-0.21,
18009,1661617064730,-0.9895,-0.7223,0.0246,6.67,-5.84,-0.67,
18010,1661617064730,-0.9656,-0.4811,-0.0525,5.37,-11.59,-0.21,
18011,1661617064730,-1.1384,-0.5099,0.279,3.89,-10.66,1.6,
18012,1661617064730,-1.2571,-0.8239,0.2644,-2.63,-9.47,3.25,
18013,1661617064730,-1.0134,-0.4928,0.3176,-10.62,-5.5,0.89,
18014,1661617064730,-1.1135,-0.4376,0.4211,-12.42,-0.68,2.89,
18015,1661617064730,-1.2307,-0.5519,0.3953,-10.41,-0.42,6.35,
18016,1661617064730,-1.0373,-0.4498,0.3098,-7.63,-5.84,6.44,
18017,1661617064730,-1.2058,-0.338,0.6814,-11.03,-1.78,12.1,
18018,1661617064730,-1.2444,-0.2423,0.3865,-5.91,-9.47,8.64,
18019,1661617064730,-1.2043,-0.299,0.6838,-9.83,12.35,14.38,
18020,1661617064730,-1.074,0.2323,0.3489,-16.02,5.91,8.64,
18021,1661617064730,-1.03,0.4164,0.1536,-14.92,6.5,12.47,
18022,1661617064730,-1.0632,0.0331,0.4206,-7.22,2.78,9.45,
18023,1661617064730,-1.0266,0.222,0.1355,-3.11,-3.38,13.19,
18024,1661617064730,-0.9587,0.6312,0.2454,-2.31,-1.11,11.37,
18025,1661617064730,-1.1531,0.722,0.3606,-1.02,-2.97,9.08,
18026,1661617064730,-1.0964,0.6981,0.2908,1.46,6.08,9.91,
18027,1661617064730,-0.9631,0.6234,0.2595,1.48,7.86,2.43,
18028,1661617064730,-0.9431,1.0423,0.4197,4.68,12.68,5.62,
18029,1661617064730,-0.9324,1.1058,0.342,12.34,8.46,1.88,
18030,1661617064730,-0.9724,0.6673,0.2898,20.26,11.66,5.08,
18031,1661617064730,-0.8664,0.8617,0.3518,19.38,13.35,3.89,
18032,1661617064744,-0.9534,0.8104,0.2405,18.84,11.66,2.06,
18033,1661617064744,-0.9187,0.6415,0.1155,23.56,12.35,-1.13,
18034,1661617064745,-0.844,0.5682,-0.0598,25.15,9.56,-0.67,
18035,1661617064745,-0.8166,0.5985,-0.1629,26.85,7.6,1.79,
18036,1661617064746,-1.0447,0.4598,-0.1399,29.16,-4.31,-2.04,
18037,1661617064746,-0.9704,0.2811,0.0828,34.35,-0.68,1.51,
18038,1661617064747,-1.008,0.4198,0.0281,35.55,-4.31,3.07,
18039,1661617064747,-0.948,0.6249,0.0002,30.65,-0.52,4.53,
18040,1661617064747,-0.9558,0.618,0.2229,34.77,5.57,2.8,
18041,1661617064747,-0.9651,0.2294,0.1443,40.36,1.85,7.54,
18042,1661617064747,-0.7815,0.4051,-0.1858,38.95,-2.29,5.08,
18043,1661617064747,-0.9612,0.4803,0.0373,46.16,8.46,2.7,
18044,1661617064747,-0.8757,0.5887,0.2878,53.97,4.98,8.73,
18045,1661617064747,-0.9119,0.4247,-0.1511,48.95,-4.91,5.98,
18046,1661617064747,-0.9285,0.5028,-0.2029,39.85,-4.31,3.16,
18047,1661617064747,-0.7903,0.5668,-0.343,42.65,-18.7,2.43,
18048,1661617064753,-0.7663,0.3509,-0.3743,50.95,-3.14,-0.21,
18049,1661617064753,-0.8293,0.3216,-0.1052,51.95,-5.76,-0.12,
18050,1661617064753,-0.7659,0.4735,-0.5496,48.86,-8.37,-4.68,
18051,1661617064753,-0.8103,0.0609,-0.0955,46.03,-12.02,0.16,
18052,1661617064753,-0.8992,-0.0343,-0.0193,48.86,-7.79,-3.95,
18053,1661617064753,-0.8816,-0.2013,-0.405,45.55,-11.93,-1.86,
18054,1661617064753,-0.9665,-0.2658,-0.1477,37.95,-8.04,-5.05,
18055,1661617064753,-1.0281,-0.59,0.1951,38.34,-5.67,-4.13,
18056,1661617064753,-1.0784,-0.7931,0.0061,35.95,-14.81,-3.95,
18057,1661617064753,-1.0915,-0.6403,-0.0989,29.05,-18.19,-2.41,
18058,1661617064753,-1.0129,-0.6476,0.1863,20.26,-12.26,1.16,
18059,1661617064753,-1.1506,-0.9645,0.2268,16.57,-13.88,-0.39,
18060,1661617064753,-1.0334,-0.7848,-0.0501,15.17,-13.12,0.16,
18061,1661617064753,-1.0769,-0.8058,0.1008,13.26,-13.2,0.7,
18062,1661617064753,-0.9778,-0.6891,0.094,12.57,-19.21,-1.49,
18063,1661617064753,-1.2063,-0.5548,0.2678,8.06,-10.83,5.34,
18064,1661617064753,-1.0349,-0.4855,0.0198,6.47,-14.29,-1.13,
18065,1661617064753,-0.9704,-0.591,-0.1467,1.28,-12.86,1.88,
18066,1661617064753,-1.0657,-0.57,0.2795,0.88,-7.53,2.89,
18067,1661617064753,-0.9802,-0.2228,0.1316,-0.83,-11.85,-1.58,
18068,1661617064753,-0.9997,-0.276,0.0637,-2.93,-6.86,1.24,
18069,1661617064753,-1.0618,-0.3917,0.1023,-3.82,-14.81,-2.41,
18070,1661617064753,-1.0974,-0.2897,0.4006,-6.33,-3.55,3.44,
18071,1661617064753,-1.2092,-0.1188,0.5994,-9.13,-1.71,-1.95,
18072,1661617064753,-1.1296,-0.0036,0.3445,-7.31,-1.78,-1.58,
18073,1661617064753,-1.0637,-0.1163,0.2478,-6.91,-0.09,-2.04,
18074,1661617064753,-1.116,-0.1408,0.6121,-11.72,2.44,0.43,
18075,1661617064753,-1.1208,-0.0485,0.4275,-9.32,3.8,0.89,
18076,1661617064753,-1.135,-0.1696,0.321,-9.02,7.6,-0.39,
18077,1661617064753,-1.1501,0.1053,0.4524,-11.61,0.67,-3.13,
18078,1661617064753,-1.1106,0.0941,0.4538,-12.12,6.34,0.52,
18079,1661617064753,-1.094,-0.1046,0.2703,-12.03,3.8,3.71,
18080,1661617064753,-0.9914,0.1839,-0.0193,-6.41,-3.38,1.79,
18081,1661617064753,-1.0979,0.2108,0.467,-4.21,-5.41,7.63,
18082,1661617064753,-1.2556,0.3314,0.5959,-6.52,-6.1,8.36,
18083,1661617064753,-1.0193,0.4237,0.3323,-5.11,-6.34,8.0,
18084,1661617064768,-1.1516,0.4232,0.2561,-5.34,2.02,7.08,
18085,1661617064768,-0.9431,0.8124,0.6404,1.37,7.86,8.36,
18086,1661617064768,-1.03,0.7611,0.1711,8.09,-4.15,6.99,
18087,1661617064768,-0.9548,0.5296,0.2248,14.97,14.12,6.44,
18088,1661617064768,-0.8464,0.6698,0.2229,19.77,8.46,3.71,
18089,1661617064768,-1.011,0.6566,0.2444,22.66,18.51,2.8,
18090,1661617064768,-0.8713,0.8583,-0.1091,21.77,6.43,1.51,
18091,1661617064768,-0.8274,0.9383,-0.1951,21.15,16.15,6.08,
18092,1661617064768,-0.8176,0.8788,-0.0574,24.64,6.43,2.15,
18093,1661617064768,-0.9968,0.7308,-0.1384,30.38,1.68,10.0,
18094,1661617064768,-0.7839,0.7499,0.134,34.25,6.08,-1.58,
18095,1661617064768,-0.844,0.8675,-0.1521,39.08,-2.54,6.08,
18096,1661617064768,-0.842,0.9115,-0.2747,38.65,3.64,3.07,
18097,1661617064768,-1.0149,0.7767,0.2654,39.34,8.53,3.53,
18098,1661617064768,-0.8835,0.5306,0.1584,39.05,6.5,5.62,
18099,1661617064768,-0.8713,0.4486,-0.2078,42.25,-0.59,3.71,
18100,1661617064768,-0.9582,0.3675,0.157,47.55,-1.71,0.8,
18101,1661617064768,-1.0354,0.3627,0.2038,50.75,-5.76,6.81,
18102,1661617064768,-0.9519,0.1971,-0.0159,49.45,0.75,1.51,
18103,1661617064768,-0.9079,-0.004,-0.1443,45.87,-4.07,3.25,
18104,1661617064768,-0.8108,0.1371,-0.0212,39.67,-3.14,3.53,
18105,1661617064768,-0.9314,-0.0163,-0.0774,38.97,-12.26,0.16,
18106,1661617064768,-0.9431,-0.0465,-0.322,46.25,-19.8,4.72,
18107,1661617064780,-0.6912,-0.0573,-0.4202,48.05,-11.85,3.25,
18108,1661617064780,-0.9866,-0.1149,0.0686,42.45,-0.85,4.26,
18109,1661617064780,-0.7756,0.013,-0.2004,40.05,-8.37,-0.94,
18110,1661617064780,-0.9065,-0.2355,-0.4412,40.95,-18.7,0.89,
18111,1661617064780,-0.9011,-0.1183,0.0745,40.45,-15.32,-1.03,
18112,1661617064780,-1.0432,-0.2208,-0.2337,38.76,-12.95,-0.58,
18113,1661617064780,-1.0549,-0.5133,0.0496,33.28,-10.07,0.16,
18114,1661617064780,-1.1262,-0.2882,0.2913,28.26,-13.12,2.7,
18115,1661617064780,-1.0969,-0.341,0.3064,25.56,-12.19,3.62,
18116,1661617064780,-1.1413,-0.4865,0.1619,21.27,-12.69,1.88,
18117,1661617064783,-1.0657,-0.4503,0.1789,17.47,0.51,4.44,
18118,1661617064783,-1.0622,-0.653,0.0447,16.77,-3.73,2.61,
18119,1661617064784,-1.0749,-0.4308,0.0593,15.36,-2.8,0.52,
18120,1661617064784,-1.1482,-0.6496,0.0989,13.49,-12.02,-1.4,
18121,1661617064784,-0.9997,-0.6725,-0.2019,7.87,-11.85,3.44,
18122,1661617064785,-0.9621,-0.5231,-0.1599,1.37,-14.48,6.9,
18123,1661617064786,-1.1389,-0.6403,0.2112,-0.32,-9.06,5.89,
18124,1661617064786,-1.0803,-0.6442,0.0398,0.18,-20.73,3.89,
18125,1661617064786,-1.0124,-0.5856,0.073,-3.92,-17.09,7.36,
18126,1661617064786,-1.1892,-0.609,0.6404,-8.53,-11.85,8.55,
18127,1661617064786,-1.0652,-0.4616,0.2825,-7.43,-7.37,9.91,
18128,1661617064786,-1.1897,-0.4489,0.3293,-12.53,6.67,10.82,
18129,1661617064786,-1.137,-0.2448,0.6326,-13.92,5.33,6.81,
18130,1661617064786,-1.1672,-0.1847,0.2331,-9.71,-2.54,7.36,
18131,1661617064786,-1.1487,-0.3493,0.5256,-9.22,-1.35,4.26,
18132,1661617064786,-1.1809,0.0697,0.4109,-8.1,-6.1,6.63,
18133,1661617064786,-1.0749,0.1058,0.2888,-11.7,-0.94,6.72,
18134,1661617064786,-1.113,0.2098,0.2371,-14.22,-0.59,6.26,
18135,1661617064786,-1.0359,0.3153,0.3596,-11.63,12.76,7.08,
18136,1661617064786,-1.0388,0.2479,0.2961,-8.82,9.13,7.17,
18137,1661617064786,-1.0212,0.5043,0.2297,-7.83,7.18,5.71,
18138,1661617064786,-1.053,0.5087,0.3572,-6.53,0.84,0.8,
18139,1661617064786,-1.0173,0.5033,0.3811,-4.33,0.42,7.72,
18140,1661617064786,-0.9851,0.7933,0.2981,-2.52,3.38,1.79,
18141,1661617064786,-0.9797,0.7445,0.2463,-0.32,5.15,4.53,
18142,1661617064786,-0.9182,0.6698,0.2185,4.48,7.36,4.44,
18143,1661617064786,-0.8913,0.7997,0.2585,7.69,7.94,1.51,
18144,1661617064796,-0.8977,0.722,0.2561,10.08,8.37,-2.13,
18145,1661617064796,-0.9475,0.6214,0.1789,13.06,5.91,0.7,
18146,1661617064796,-0.9416,0.6439,0.2038,16.48,11.07,4.26,
18147,1661617064796,-0.8816,0.5433,0.2361,19.16,10.23,0.43,
18148,1661617064796,-0.7917,0.5389,0.0749,20.37,2.61,8.46,
18149,1661617064796,-1.0471,0.4623,0.2629,23.47,5.33,6.26,
18150,1661617064796,-1.0325,0.3295,0.1697,26.06,-6.18,9.01,
18151,1661617064796,-0.7527,0.4032,-0.1253,30.94,-2.29,11.55,
18152,1661617064796,-0.9265,0.6415,0.2829,33.48,6.93,5.34,
18153,1661617064796,-0.7947,0.5218,-0.2898,33.66,-1.95,9.72,
18154,1661617064796,-0.866,0.2372,-0.2097,36.36,2.78,6.72,
18155,1661617064796,-0.9412,0.3675,0.1648,37.06,12.76,8.55,
18156,1661617064796,-0.8972,0.7704,-0.0798,42.75,-1.61,3.8,
18157,1661617064796,-0.8249,0.5233,-0.218,42.07,-9.56,3.44,
18158,1661617064796,-0.9241,0.5467,0.0622,39.55,-27.25,4.35,
18159,1661617064796,-0.8201,0.5399,0.218,43.85,-11.33,1.51,
18160,1661617064796,-0.8899,0.4847,0.155,50.75,7.86,1.24,
18161,1661617064796,-0.8459,0.5882,-0.1336,55.27,14.71,0.61,
18162,1661617064796,-0.8269,0.3856,-0.0505,48.17,8.79,3.53,
18163,1661617064796,-0.8747,0.3246,0.0124,40.95,2.19,-4.41,
18164,1661617064796,-0.7683,0.1581,-0.3035,43.35,-16.67,-0.85,
18165,1661617064796,-0.8274,-0.1095,-0.3855,53.77,-12.86,-1.77,
18166,1661617064796,-0.8977,-0.0875,-0.3142,45.67,-7.27,-6.59,
18167,1661617064796,-0.947,-0.1364,-0.2615,40.57,-8.21,-5.78,
18168,1661617064796,-0.9739,-0.6227,-0.0217,38.56,-18.19,-6.42,
18169,1661617064796,-0.9656,-0.4542,-0.1389,39.26,-21.91,-2.23,
18170,1661617064796,-0.9988,-0.611,0.094,30.17,-16.58,0.89,
18171,1661617064796,-1.1951,-0.63,0.3415,25.16,-9.06,2.7,
18172,1661617064796,-1.0398,-0.7326,0.1653,23.86,-9.3,5.16,
18173,1661617064796,-1.0876,-0.6798,0.3088,23.57,-1.35,2.43,
18174,1661617064796,-1.0588,-0.5582,0.3235,16.57,1.94,1.33,
18175,1661617064796,-1.1077,-0.6251,-0.1218,14.48,-6.27,-2.32,
18176,1661617064796,-1.0437,-0.463,-0.0281,10.79,-12.95,5.08,
18177,1661617064796,-1.22,-0.2028,0.1067,6.97,-13.71,2.61,
18178,1661617064796,-1.0862,-0.5431,-0.2063,6.27,-15.58,0.52,
18179,1661617064812,-1.0325,-0.2594,-0.0281,1.68,-11.59,0.8,
18180,1661617064812,-1.0481,-0.132,0.2864,3.26,-4.31,-0.67,
18181,1661617064812,-1.0408,-0.1681,0.0329,-1.12,-16.32,-0.12,
18182,1661617064812,-1.029,-0.172,0.0764,-2.53,-6.1,1.7,
18183,1661617064812,-1.1179,-0.3185,0.5071,-5.83,-8.21,-0.3,
18184,1661617064812,-1.1169,-0.1818,0.2146,-3.72,2.11,-2.32,
18185,1661617064814,-1.1511,-0.2433,0.4241,-2.93,9.13,-2.67,
18186,1661617064814,-1.113,-0.3825,0.2532,-8.91,1.44,-1.13,
18187,1661617064816,-1.0984,-0.297,0.3357,-11.92,-5.25,-3.49,
18188,1661617064816,-1.2024,-0.3131,0.4812,-12.1,-2.38,-0.03,
18189,1661617064816,-1.1418,-0.3141,0.2532,-11.23,-2.45,1.33,
18190,1661617064816,-1.1091,-0.2316,0.2869,-14.42,0.67,3.07,
18191,1661617064816,-1.2693,-0.2086,0.6448,-17.01,-2.38,3.16,
18192,1661617064816,-1.0398,-0.1408,0.4001,-18.01,0.32,7.36,
18193,1661617064816,-1.0652,0.0838,0.4421,-14.33,8.7,7.91,
18194,1661617064816,-1.0779,0.3358,0.3845,-11.81,6.0,4.35,
18195,1661617064816,-1.0959,0.305,0.344,-4.93,8.79,3.89,
18196,1661617064816,-1.0818,0.1957,0.3718,-4.01,13.1,8.36,
18197,1661617064816,-0.9255,0.5712,0.1589,-7.33,2.28,5.8,
18198,1661617064816,-0.9568,0.7215,0.2663,-5.62,0.25,4.35,
18199,1661617064816,-0.9856,0.7796,0.3752,-5.13,-4.15,8.46,
18200,1661617064816,-0.8279,0.8983,0.0847,5.37,-4.24,2.89,
18201,1661617064816,-0.8664,0.7269,0.1521,12.07,-6.6,5.43,
18202,1661617064816,-0.9568,0.9388,0.4114,18.66,9.04,6.81,
18203,1661617064816,-0.8567,1.0126,0.387,22.06,23.5,4.72,
18204,1661617064816,-0.8137,0.8651,0.1111,17.45,23.59,4.99,
18205,1661617064816,-0.8284,1.0106,0.0828,17.78,18.1,-1.58,
18206,1661617064816,-0.8913,0.7787,0.2576,20.37,4.73,-0.21,
18207,1661617064816,-0.8303,0.6576,0.1526,28.36,-2.88,-0.67,
18208,1661617064816,-0.8293,0.7215,-0.1384,36.38,1.18,-0.39,
18209,1661617064816,-0.8879,0.5687,-0.1296,39.76,9.04,2.43,
18210,1661617064816,-0.948,0.4764,-0.0188,35.17,7.6,3.53,
18211,1661617064816,-0.8196,0.4203,-0.0354,33.05,6.93,3.07,
18212,1661617064816,-0.843,0.3275,-0.0813,33.46,-7.44,1.79,
18213,1661617064816,-0.866,0.3319,-0.0681,39.08,-9.3,1.79,
18214,1661617064816,-0.9231,0.1932,0.1716,46.17,-11.68,1.51,
18215,1661617064816,-1.0325,0.1297,0.0759,46.16,-8.04,8.64,
18216,1661617064816,-0.8723,0.306,0.0574,43.55,0.67,10.27,
18217,1661617064816,-0.8713,0.3758,0.2273,42.14,8.7,7.91,
18218,1661617064816,-0.9363,0.3016,-0.0012,42.65,-3.64,2.15,
18219,1661617064816,-0.8616,0.1073,-0.3811,45.45,-5.08,6.53,
18220,1661617064816,-0.8894,0.1908,0.1545,45.55,-7.2,4.35,
18221,1661617064816,-0.8835,0.3597,-0.3035,46.66,-16.92,2.8,
18222,1661617064816,-0.7947,0.1786,-0.4724,48.55,-13.96,1.42,
18223,1661617064831,-0.7976,0.1459,-0.2439,45.45,-10.83,-2.32,
18224,1661617064831,-0.8186,0.1883,-0.1575,41.06,-14.39,-3.77,
18225,1661617064831,-0.9524,-0.2018,-0.1775,41.75,-17.35,-3.58,
18226,1661617064831,-1.0388,-0.1242,0.1179,39.87,-10.92,-0.12,
18227,1661617064831,-1.0935,-0.2824,0.178,34.16,-15.74,-0.21,
18228,1661617064831,-1.0818,-0.3605,0.1282,29.57,-9.73,-1.13,
18229,1661617064831,-1.1013,-0.5211,0.2761,31.46,-1.11,-4.59,
18230,1661617064831,-1.1038,-0.7008,0.0066,24.66,0.92,-1.22,
18231,1661617064831,-1.0598,-0.6549,-0.0266,19.06,-2.54,-2.04,
18232,1661617064831,-1.1204,-0.6544,0.1482,12.37,-7.7,3.44,
18233,1661617064831,-1.1985,-0.8419,-0.0086,11.87,-17.35,-1.31,
18234,1661617064831,-1.0803,-0.6666,-0.0574,8.86,-13.36,5.08,
18235,1661617064831,-1.154,-0.7223,0.1418,2.47,-9.3,3.53,
18236,1661617064831,-1.0237,-0.5275,0.0749,-2.84,-10.4,0.52,
18237,1661617064831,-1.2483,-0.5455,0.1794,-2.11,-14.64,-0.21,
18238,1661617064831,-1.0647,-0.569,0.1907,-2.12,-21.83,0.8,
18239,1661617064831,-0.9665,-0.4689,0.2419,-6.72,-11.26,3.53,
18240,1661617064831,-1.1057,-0.2921,0.4924,-6.82,9.72,1.79,
18241,1661617064831,-1.0398,-0.277,0.0745,-7.22,4.14,-1.77,
18242,1661617064831,-1.0173,-0.2995,0.3069,-8.62,9.46,0.89,
18243,1661617064831,-1.0959,-0.0221,0.5369,-12.53,-5.93,1.79,
18244,1661617064841,-1.1858,0.0096,0.1262,-14.12,-16.58,-4.41,
18245,1661617064841,-1.1218,-0.1373,0.2693,-13.23,-9.82,-1.95,
18246,1661617064841,-1.1047,0.0253,0.4729,-11.61,8.11,-4.04,
18247,1661617064841,-1.0369,0.1463,0.5051,-13.81,8.2,-6.42,
18248,1661617064841,-1.1892,0.1146,0.5154,-16.01,1.18,-3.4,
18249,1661617064841,-0.9797,0.2381,0.468,-15.43,1.35,-8.51,
18250,1661617064841,-0.9944,0.2147,0.3391,-10.84,3.88,-0.67,
18251,1661617064841,-1.0276,0.2997,0.2947,-5.51,13.35,0.52,
18252,1661617064841,-1.0393,0.287,0.2322,-7.63,20.71,1.6,
18253,1661617064841,-0.9094,0.3563,0.1028,-8.23,15.38,2.34,
18254,1661617064841,-0.9509,0.6473,0.1062,-8.03,1.44,-4.04,
18255,1661617064841,-0.9661,0.4203,0.1819,-3.83,-2.12,2.98,
18256,1661617064841,-0.9704,0.2997,0.1272,1.97,-10.4,-1.13,
18257,1661617064841,-0.823,0.5995,0.1077,5.46,-8.47,3.8,
18258,1661617064841,-0.9866,0.7079,0.5852,5.96,3.64,0.43,
18259,1661617064841,-1.0217,0.6185,0.3318,9.96,2.61,3.44,
18260,1661617064841,-0.6697,0.6263,0.3176,11.06,19.2,2.7,
18261,1661617064841,-0.9109,0.598,0.509,15.17,22.83,4.9,
18262,1661617064841,-0.9182,0.4842,0.0452,20.26,15.22,11.65,
18263,1661617064841,-1.0373,0.4989,0.3826,23.27,17.17,13.37,
18264,1661617064841,-0.8523,0.9501,-0.0144,26.96,5.66,8.55,
18265,1661617064841,-0.8132,0.8197,-0.4563,29.95,1.77,14.1,
18266,1661617064841,-0.7136,0.5209,-0.2258,33.55,13.69,3.8,
18267,1661617064841,-0.7082,0.8309,-0.2014,28.96,1.44,6.72,
18268,1661617064841,-0.7366,0.8754,-0.3152,32.47,-5.67,3.8,
18269,1661617064841,-0.8987,0.9212,-0.1052,42.56,-16.67,1.51,
18270,1661617064841,-0.863,0.9491,0.0085,49.06,-9.73,0.43,
18271,1661617064841,-0.8191,0.557,0.0842,45.26,-9.23,-1.4,
18272,1661617064841,-0.9089,0.6459,0.0881,44.55,-1.78,0.7,
18273,1661617064841,-0.9167,0.4671,0.1311,48.16,4.57,-5.78,
18274,1661617064841,-0.9485,0.2093,0.0618,49.25,7.53,-3.58,
18275,1661617064841,-0.9338,0.3343,0.0032,48.46,3.64,-4.96,
18276,1661617064841,-0.8782,0.162,-0.0676,48.75,-0.35,-2.67,
18277,1661617064841,-0.8957,-0.1442,-0.1682,44.55,-8.97,0.8,
18278,1661617064841,-0.7956,0.1322,-0.3372,43.47,-17.94,-4.5,
18279,1661617064841,-0.925,-0.3331,-0.3621,43.47,-18.02,-1.58,
18280,1661617064857,-0.9617,-0.2877,-0.1233,42.45,-11.68,-5.32,
18281,1661617064857,-0.8928,-0.1974,-0.1521,38.65,-19.38,0.7,
18282,1661617064857,-1.0613,-0.2633,-0.0169,37.55,-25.3,-4.5,
18283,1661617064857,-1.0427,-0.4147,0.1306,40.05,-18.28,-2.32,
18284,1661617064857,-1.1272,-0.6246,0.1663,34.65,-1.95,1.33,
18285,1661617064857,-1.0246,-0.3991,0.1975,24.58,-6.44,-1.31,
18286,1661617064857,-1.2019,-0.3815,0.2136,24.15,-15.32,2.43,
18287,1661617064857,-1.1829,-0.6671,0.2341,23.77,-14.72,1.33,
18288,1661617064857,-1.0652,-0.3463,0.1033,20.57,-13.45,-0.76,
18289,1661617064857,-1.1623,-0.5231,0.2014,16.07,-2.04,2.8,
18290,1661617064857,-1.1335,-0.4738,0.094,11.95,-10.33,0.06,
18291,1661617064857,-1.0998,-0.362,0.074,7.89,-11.0,3.16,
18292,1661617064857,-1.0798,-0.296,0.1028,6.18,-13.88,-2.5,
18293,1661617064857,-1.0701,-0.1857,0.0071,7.06,-2.45,-1.68,
18294,1661617064857,-1.0715,-0.5353,0.0051,6.38,-2.29,-3.58,
18295,1661617064857,-1.0276,-0.4147,-0.0559,0.99,-3.81,-1.13,
18296,1661617064857,-1.0954,-0.3366,0.0793,-3.43,-4.57,0.34,
18297,1661617064857,-1.1955,-0.6891,0.1277,-6.12,-10.24,-4.96,
18298,1661617064857,-1.1267,-0.609,0.1575,-10.01,-17.68,-0.85,
18299,1661617064857,-1.092,-0.4542,0.3762,-11.52,-6.27,-6.51,
18300,1661617064857,-1.3122,-0.4982,0.467,-13.61,-5.25,-1.22,
18301,1661617064857,-1.1326,-0.3336,0.5681,-16.1,1.09,-6.51,
18302,1661617064857,-1.2454,-0.2907,0.803,-17.52,-2.29,0.06,
18303,1661617064857,-1.1584,-0.1598,0.5388,-16.22,-6.27,-3.95,
18304,1661617064857,-1.2131,-0.0802,0.7087,-17.01,11.07,4.08,
18305,1661617064857,-1.0281,0.2411,0.4631,-16.02,9.56,-4.41,
18306,1661617064857,-1.0315,0.2953,0.2371,-14.21,11.16,2.89,
18307,1661617064857,-1.0871,0.1615,0.3064,-10.73,7.27,-1.68,
18308,1661617064857,-1.0456,0.2176,0.0203,-8.33,-2.8,7.54,
18309,1661617064857,-0.8406,0.5731,0.0154,-6.23,-0.52,-2.76,
18310,1661617064857,-0.9294,0.7547,0.0959,-7.04,-0.52,-2.04,
18311,1661617064857,-0.8025,0.6385,0.0002,-3.13,3.28,2.89,
18312,1661617064873,-0.8855,0.5736,0.0496,-2.93,9.22,4.44,
18313,1661617064873,-0.8806,0.9691,0.3376,-1.02,11.49,2.61,
18314,1661617064873,-0.9407,0.9413,0.2908,6.79,7.43,-2.67,
18315,1661617064873,-0.8801,0.7274,0.3181,11.06,9.89,-5.6,
18316,1661617064873,-0.8918,0.8226,0.4221,13.67,12.09,-7.05,
18317,1661617064873,-0.8904,0.8299,0.3489,16.77,11.33,-8.24,
18318,1661617064873,-0.8933,0.6722,0.1125,24.76,5.83,-9.34,
18319,1661617064873,-0.8811,0.6883,0.0998,25.56,9.97,-9.34,
18320,1661617064873,-0.9402,0.4398,0.0496,26.87,7.77,-7.14,
18321,1661617064873,-1.0246,0.392,-0.0574,28.46,2.78,-0.3,
18322,1661617064873,-0.9202,0.3114,-0.033,29.86,-0.52,0.61,
18323,1661617064873,-0.9758,0.3011,-0.054,28.17,-3.22,-0.39,
18324,1661617064873,-0.7048,0.5931,-0.1087,29.05,-6.94,1.79,
18325,1661617064873,-0.989,0.2992,0.0383,36.96,-7.63,4.35,
18326,1661617064873,-0.9558,0.1893,0.0359,42.14,-8.3,4.26,
18327,1661617064873,-0.801,0.3207,-0.1126,42.16,-8.13,10.73,
18328,1661617064873,-1.134,0.5028,0.1794,38.16,-3.38,9.17,
18329,1661617064873,-0.8923,0.5658,0.0715,42.85,-11.33,9.08,
18330,1661617064873,-0.864,0.328,0.0705,45.96,-10.59,8.36,
18331,1661617064873,-0.823,0.5165,-0.1409,48.95,-11.17,6.9,
18332,1661617064873,-0.8166,0.492,-0.3655,48.86,-0.26,6.08,
18333,1661617064873,-0.8425,0.3207,0.0344,48.34,7.77,5.71,
18334,1661617064873,-0.9221,0.5277,-0.0911,48.57,-9.56,-3.31,
18335,1661617064873,-0.7244,0.3524,-0.4871,47.65,-15.48,-0.94,
18336,1661617064873,-0.8616,0.0423,-0.1721,47.85,-15.82,-3.77,
18337,1661617064885,-0.8865,0.035,-0.0071,46.84,-7.44,-0.49,
18338,1661617064885,-0.949,-0.1012,-0.2117,43.85,-15.15,-3.22,
18339,1661617064885,-1.0095,-0.1798,-0.1677,41.27,-10.92,-4.32,
18340,1661617064885,-1.0945,-0.3312,0.2624,38.27,-16.92,-6.42,
18341,1661617064885,-1.1413,-0.6803,0.1731,31.26,-14.29,-4.13,
18342,1661617064885,-1.0813,-0.3766,0.1135,26.67,-12.69,-6.15,
18343,1661617064885,-1.1457,-0.6203,0.3215,24.37,-7.03,-2.41,
18344,1661617064885,-1.1594,-0.9215,0.2239,21.68,-4.67,-2.59,
18345,1661617064885,-1.0998,-0.7257,0.178,16.78,-4.67,-1.86,
18346,1661617064885,-1.1135,-0.671,0.0173,12.66,-10.59,-3.4,
18347,1661617064885,-1.0139,-0.5167,0.0276,7.78,-7.7,-3.67,
18348,1661617064885,-1.2278,-0.4606,0.1296,4.27,-4.57,-6.42,
18349,1661617064885,-1.1213,-0.4713,-0.0481,4.59,-13.45,-4.68,
18350,1661617064885,-1.1067,-0.4894,-0.1248,3.37,-13.29,-6.68,
18351,1661617064885,-1.1477,-0.3595,0.258,3.87,-12.02,-5.23,
18352,1661617064885,-1.0496,-0.1735,0.0207,-2.21,-11.93,-8.42,
18353,1661617064885,-1.0452,-0.3468,0.2346,-4.93,-1.02,-3.95,
18354,1661617064885,-1.095,-0.4005,0.1667,-6.93,-4.07,-7.05,
18355,1661617064885,-1.072,-0.2858,0.4646,-6.93,-1.45,-4.77,
18356,1661617064885,-1.2537,-0.2321,0.6482,-10.42,-3.9,-8.88,
18357,1661617064885,-1.1838,-0.048,0.4246,-10.53,-0.94,-6.15,
18358,1661617064885,-1.1252,-0.3092,0.3445,-12.13,5.5,-5.32,
18359,1661617064885,-1.1072,-0.1871,0.4841,-13.9,8.29,-4.5,
18360,1661617064885,-1.1174,-0.1232,0.3591,-12.42,2.28,-4.22,
18361,1661617064885,-1.1125,-0.1251,0.2922,-16.24,2.78,0.8,
18362,1661617064885,-1.0266,0.0799,0.385,-12.93,2.02,-3.77,
18363,1661617064885,-1.0945,-0.109,0.3694,-13.61,8.37,3.99,
18364,1661617064885,-1.1033,-0.0656,0.2204,-14.41,3.54,4.35,
18365,1661617064885,-0.9197,0.2113,0.0627,-11.92,3.47,3.07,
18366,1661617064885,-1.1394,0.2069,0.5554,-9.71,7.6,5.53,
18367,1661617064885,-0.9768,0.4266,0.2756,-2.31,1.18,2.98,
18368,1661617064885,-0.9104,0.431,0.0173,-2.05,-1.71,0.98,
18369,1661617064885,-0.8235,0.5311,0.5002,-1.63,10.82,1.6,
18370,1661617064885,-0.9734,0.9027,0.3279,-1.63,-1.19,0.06,
18371,1661617064885,-0.9739,0.6839,0.1521,7.57,3.54,2.34,
18372,1661617064885,-0.8166,0.7108,0.3,8.99,-6.18,-3.13,
18373,1661617064885,-0.9831,0.7655,0.1584,15.56,2.61,0.61,
18374,1661617064885,-0.8689,0.7386,0.0671,27.16,9.8,-0.94,
18375,1661617064885,-0.8581,0.9974,0.0798,25.76,19.11,-3.03,
18376,1661617064902,-0.8215,0.9164,0.0574,19.74,12.18,-1.68,
18377,1661617064902,-0.8796,0.7665,-0.0051,21.18,-5.76,-3.49,
18378,1661617064902,-0.8064,0.8734,0.0364,28.04,-1.78,-1.13,
18379,1661617064902,-0.8772,0.7889,0.0276,35.28,3.97,0.7,
18380,1661617064902,-0.7961,0.8382,-0.2532,36.96,4.64,-4.68,
18381,1661617064902,-0.9206,0.7582,0.1179,34.76,8.62,-3.58,
18382,1661617064902,-0.9138,0.619,0.2268,39.15,4.9,-8.05,
18383,1661617064902,-0.8616,0.5497,-0.1096,41.08,-4.07,-6.86,
18384,1661617064902,-0.8484,0.4637,-0.1082,48.03,-5.08,-8.24,
18385,1661617064902,-1.0222,0.3329,0.0593,49.76,-13.29,-10.88,
18386,1661617064902,-0.9553,0.2152,-0.0418,43.65,-7.44,-8.33,
18387,1661617064902,-0.9119,-0.0626,-0.0725,44.55,-4.74,-6.59,
18388,1661617064902,-0.8474,0.1507,0.073,48.87,-1.78,-3.4,
18389,1661617064902,-0.7527,0.1678,0.155,46.45,-4.74,-0.39,
18390,1661617064902,-1.0217,-0.1339,-0.1384,41.35,-23.43,-0.39,
18391,1661617064902,-0.7004,-0.1369,-0.2761,45.65,-17.18,1.07,
18392,1661617064902,-0.9758,-0.1154,0.0315,49.86,8.79,-0.76,
18393,1661617064902,-0.8494,0.0775,-0.241,47.96,-4.15,-0.12,
18394,1661617064902,-0.9587,-0.1027,-0.218,39.26,-21.4,-1.03,
18395,1661617064902,-0.9914,-0.0797,0.1189,42.17,-23.01,3.16,
18396,1661617064902,-1.0066,-0.0836,-0.2439,44.75,-11.59,1.16,
18397,1661617064902,-1.0666,-0.4015,0.196,33.77,-4.24,3.62,
18398,1661617064902,-1.1575,-0.255,0.2844,30.58,-9.99,-2.13,
18399,1661617064902,-1.0652,-0.2072,0.2336,29.28,-15.39,-1.4,
18400,1661617064902,-1.1848,-0.4469,0.2893,24.86,-11.68,-1.31,
18401,1661617064902,-1.1409,-0.3947,0.3391,21.27,3.04,0.8,
18402,1661617064902,-1.0974,-0.5978,-0.0256,16.77,0.67,-0.03,
18403,1661617064902,-1.0862,-0.3864,0.0315,12.88,5.91,-1.49,
18404,1661617064902,-1.1877,-0.5807,0.0613,15.56,-7.79,-3.22,
18405,1661617064902,-1.1594,-0.7218,-0.1223,13.78,-9.3,0.98,
18406,1661617064902,-1.0544,-0.4552,-0.1956,4.35,-13.29,-0.76,
18407,1661617064902,-1.0779,-0.4601,0.1448,-1.31,-7.44,1.97,
18408,1661617064902,-1.1902,-0.674,0.0027,0.49,-16.41,2.43,
18409,1661617064902,-0.9919,-0.6061,0.0691,-1.83,-11.93,-0.39,
18410,1661617064917,-1.1794,-0.6071,0.5696,-5.83,-9.56,1.88,
18411,1661617064917,-1.094,-0.4503,0.2766,-8.44,-13.79,-0.39,
18412,1661617064917,-1.2576,-0.5294,0.6379,-10.33,-1.95,1.42,
18413,1661617064917,-1.2141,-0.359,0.7156,-11.23,7.94,-1.86,
18414,1661617064917,-1.156,-0.1828,0.3249,-14.92,8.62,-3.13,
18415,1661617064917,-1.1526,-0.3537,0.4358,-13.22,9.8,-4.41,
18416,1661617064917,-1.1619,0.0389,0.4695,-14.92,-3.98,-4.68,
18417,1661617064917,-1.0461,0.1537,0.2932,-15.63,-4.31,-5.69,
18418,1661617064917,-1.0788,0.1756,0.2873,-14.22,-10.49,-4.59,
18419,1661617064917,-1.0413,0.2655,0.5832,-9.43,8.53,-5.69,
18420,1661617064917,-1.1233,0.223,0.5705,-9.32,7.43,-3.95,
18421,1661617064924,-1.05,0.4881,0.2922,-9.92,10.9,-6.06,
18422,1661617064924,-0.9407,0.515,0.342,-7.43,11.58,-2.76,
18423,1661617064924,-0.928,0.4735,0.2117,-4.35,11.25,-3.03,
18424,1661617064924,-0.8938,0.725,0.1033,-1.04,13.02,-4.59,
18425,1661617064924,-0.9324,0.682,0.0583,0.78,16.91,-0.85,
18426,1661617064924,-0.8913,0.5712,-0.0676,3.07,13.19,-5.96,
18427,1661617064924,-0.9109,0.7186,0.0466,5.87,8.37,-3.22,
18428,1661617064924,-0.9451,0.6234,0.053,10.59,-1.45,-3.67,
18429,1661617064924,-0.9075,0.6244,0.0793,16.58,-10.24,-7.23,
18430,1661617064927,-0.8235,0.5619,0.3083,18.37,-9.14,-2.13,
18431,1661617064927,-1.0622,0.4637,0.508,19.48,-3.98,-6.77,
18432,1661617064927,-1.0383,0.4784,0.407,20.77,11.42,-0.67,
18433,1661617064927,-1.0373,0.2953,0.449,25.28,28.49,0.89,
18434,1661617064927,-0.7405,0.5023,0.3205,27.28,25.2,-5.51,
18435,1661617064927,-0.8923,0.7464,0.1223,27.05,18.44,6.53,
18436,1661617064927,-0.9036,0.6566,-0.1472,32.65,3.21,-3.58,
18437,1661617064927,-0.6531,0.4452,-0.7068,39.95,-4.07,5.62,
18438,1661617064927,-0.8235,0.4462,-0.1526,39.17,2.7,2.61,
18439,1661617064927,-0.8259,0.871,-0.4387,39.26,-11.33,0.89,
18440,1661617064927,-0.7063,0.6854,-0.5261,43.56,-15.58,3.8,
18441,1661617064927,-0.8591,0.5882,-0.2473,46.25,-21.24,-0.94,
18442,1661617064927,-0.9236,0.6415,0.1345,47.06,-22.43,2.7,
18443,1661617064927,-0.8826,0.5311,0.2693,49.47,-10.83,-4.13,
18444,1661617064927,-0.947,0.5692,0.3201,53.43,3.8,-2.85,
18445,1661617064927,-0.9231,0.5043,0.2024,55.75,9.3,-6.68,
18446,1661617064927,-0.8611,0.2953,0.154,51.74,19.28,-6.59,
18447,1661617064927,-0.8445,0.2772,-0.0208,46.35,7.53,-7.96,
18448,1661617064927,-0.7903,-0.0455,-0.4187,50.57,-1.45,-8.97,
18449,1661617064927,-0.8811,-0.1735,-0.5471,51.25,-15.99,-2.94,
18450,1661617064927,-0.9846,-0.0524,-0.3342,50.46,-18.44,-3.86,
18451,1661617064927,-0.9485,-0.5221,-0.2156,43.76,-25.97,-4.96,
18452,1661617064927,-0.9548,-0.3991,-0.26,36.85,-29.02,-2.85,
18453,1661617064927,-0.8782,-0.3585,0.1521,32.06,-20.31,-0.67,
18454,1661617064927,-1.1677,-0.5568,0.4636,30.97,-14.13,-1.13,
18455,1661617064927,-1.0774,-0.5988,0.3733,27.36,-10.75,-1.95,
18456,1661617064927,-1.1682,-0.6681,0.5037,29.75,0.08,-1.22,
18457,1661617064927,-1.1106,-0.4635,0.3904,22.28,2.44,0.16,
18458,1661617064927,-1.1467,-0.4308,0.1702,20.26,0.75,-4.41,
18459,1661617064927,-1.0642,-0.463,-0.0173,14.16,-5.67,-3.22,
18460,1661617064927,-1.1433,-0.2902,-0.0852,16.26,-3.31,-3.49,
18461,1661617064927,-1.1257,-0.6129,-0.1497,16.65,-13.71,0.61,
18462,1661617064927,-1.072,-0.3956,-0.1438,9.58,-22.43,-3.31,
18463,1661617064927,-1.0496,-0.1847,0.1199,4.48,-15.91,-2.59,
18464,1661617064927,-1.0349,-0.317,-0.0994,1.27,-16.25,-6.15,
18465,1661617064943,-0.9661,-0.3532,0.3288,0.69,2.61,-3.22,
18466,1661617064943,-1.1482,-0.4245,0.5046,-2.73,0.92,-0.12,
18467,1661617064943,-1.1404,-0.3566,0.2693,-3.21,-3.48,-0.85,
18468,1661617064943,-1.2024,-0.3585,0.4983,-1.12,5.24,-3.95,
18469,1661617064943,-1.1824,-0.4616,0.4656,-5.53,2.7,-3.03,
18470,1661617064943,-1.0867,-0.3942,0.3205,-9.63,0.32,2.7,
18471,1661617064943,-1.1794,-0.3644,0.4016,-14.12,4.81,0.61,
18472,1661617064943,-1.2165,-0.3048,0.3689,-13.63,-1.78,3.34,
18473,1661617064943,-1.0735,-0.215,0.2869,-15.73,-2.04,0.16,
18474,1661617064943,-1.2468,-0.256,0.5671,-12.32,-2.45,5.62,
18475,1661617064943,-1.0452,-0.0905,0.4416,-12.42,0.32,2.06,
18476,1661617064943,-1.1824,0.0834,0.4221,-13.32,11.07,4.44,
18477,1661617064943,-1.0393,0.3534,0.4768,-10.12,20.47,3.62,
18478,1661617064943,-1.0183,0.3133,0.2971,-8.42,8.37,1.07,
18479,1661617064943,-1.009,0.1669,0.2991,-7.92,14.29,6.17,
18480,1661617064943,-0.8464,0.6244,0.1985,-5.13,-0.35,-1.68,
18481,1661617064943,-0.864,0.7084,0.0373,-1.73,-1.61,1.6,
18482,1661617064943,-0.8777,0.7386,0.1213,2.68,-1.28,-4.04,
18483,1661617064943,-0.8796,0.9247,0.0447,6.56,7.01,-0.67,
18484,1661617064943,-0.8396,0.6996,0.0056,10.66,9.22,3.89,
18485,1661617064943,-0.9226,0.9559,0.2629,12.27,10.9,-1.86,
18486,1661617064943,-0.8171,0.9759,0.405,18.66,14.45,-2.5,
18487,1661617064943,-0.8508,0.8255,0.1824,22.76,7.86,0.43,
18488,1661617064943,-0.8205,0.8465,0.1204,23.76,8.11,0.25,
18489,1661617064943,-0.8704,0.7386,0.3621,24.26,6.67,1.16,
18490,1661617064943,-0.8391,0.6068,-0.0256,28.76,6.6,-2.5,
18491,1661617064943,-0.844,0.6659,-0.1614,31.95,6.93,-1.03,
18492,1661617064943,-0.928,0.5414,-0.075,34.27,15.22,2.8,
18493,1661617064943,-0.9377,0.3871,-0.0559,34.18,5.91,3.89,
18494,1661617064943,-0.8357,0.392,-0.1555,35.95,-1.35,5.71,
18495,1661617064943,-0.8938,0.3094,-0.1399,37.17,-12.62,-3.03,
18496,1661617064943,-0.9158,0.3871,0.0061,43.35,-15.74,2.61,
18497,1661617064943,-0.8669,0.2386,0.1267,45.45,-13.12,-0.39,
18498,1661617064943,-1.0154,0.0736,0.0227,47.96,-8.47,4.35,
18499,1661617064958,-0.7385,0.2767,0.0749,43.35,-3.73,5.34,
18500,1661617064958,-1.0769,0.2772,0.2922,45.85,7.86,0.98,
18501,1661617064958,-0.8581,0.1942,-0.1941,50.25,2.02,6.53,
18502,1661617064958,-0.8415,0.1874,-0.2429,51.36,-1.19,5.43,
18503,1661617064958,-0.8992,0.2093,0.1897,47.96,-1.02,0.89,
18504,1661617064958,-0.863,0.3832,-0.366,47.16,-20.05,1.33,
18505,1661617064958,-0.7722,0.139,-0.4475,46.45,-18.11,1.24,
18506,1661617064963,-0.8435,0.3334,-0.0774,46.95,-11.0,0.89,
18507,1661617064963,-0.8572,0.3114,-0.1775,49.25,-8.21,-3.03,
18508,1661617064963,-0.9368,-0.1251,-0.2468,48.75,-14.81,-2.94,
18509,1661617064963,-1.0549,0.0497,0.2244,43.67,-13.88,-5.41,
18510,1661617064963,-1.0549,-0.0197,0.2107,38.74,-15.06,-5.32,
18511,1661617064963,-1.0828,-0.2584,0.1125,37.55,-6.94,-8.97,
18512,1661617064963,-1.1247,-0.38,0.4661,33.06,2.78,-6.59,
18513,1661617064963,-1.1321,-0.6271,0.1311,27.75,1.68,-10.97,
18514,1661617064963,-1.1496,-0.4747,0.1228,25.65,-1.61,-10.34,
18515,1661617064963,-1.1658,-0.6618,0.1794,20.66,-6.27,-10.97,
18516,1661617064963,-1.1799,-0.7877,0.0203,15.68,-14.55,-8.24,
18517,1661617064963,-1.0793,-0.5495,-0.1663,9.47,-10.07,-8.24,
18518,1661617064963,-1.1545,-0.57,0.0788,8.97,-7.53,-4.32,
18519,1661617064963,-1.0237,-0.4806,-0.01,7.06,-13.45,-9.61,
18520,1661617064963,-1.2273,-0.4308,0.0271,3.26,-19.71,-5.69,
18521,1661617064963,-1.0959,-0.5621,0.2307,3.46,-13.96,-6.51,
18522,1661617064963,-1.113,-0.3239,0.3181,1.28,-8.89,-4.04,
18523,1661617064963,-1.0759,-0.2789,0.345,-3.33,1.09,-4.5,
18524,1661617064963,-1.0564,-0.3112,0.1472,-2.82,-11.26,-5.78,
18525,1661617064963,-1.0788,-0.3707,0.3528,-3.53,10.23,-5.6,
18526,1661617064963,-1.1247,-0.2023,0.594,-3.53,-4.83,-6.06,
18527,1661617064963,-1.1907,-0.153,0.1228,-7.02,-1.71,-3.03,
18528,1661617064963,-1.178,-0.1823,0.4665,-8.61,-0.52,-6.15,
18529,1661617064963,-1.1277,-0.0426,0.5632,-11.83,5.41,-2.67,
18530,1661617064963,-1.1536,-0.0758,0.3987,-11.92,-0.77,-6.06,
18531,1661617064963,-1.1301,0.016,0.405,-10.33,-0.68,-0.39,
18532,1661617064963,-0.9875,0.0838,0.4167,-8.32,9.46,-1.58,
18533,1661617064963,-1.0163,0.1156,0.3191,-8.33,17.92,-3.4,
18534,1661617064963,-0.9402,0.2821,0.2546,-4.73,16.99,-4.41,
18535,1661617064963,-0.9621,0.2118,0.2034,-6.44,13.28,-4.41,
18536,1661617064963,-0.9626,0.3324,0.1062,-6.33,4.73,-6.42,
18537,1661617064963,-0.9807,0.4281,0.0901,-4.23,-0.18,-4.5,
18538,1661617064963,-0.9309,0.2767,0.1492,2.18,2.11,2.15,
18539,1661617064963,-0.8855,0.3705,-0.0462,5.35,-6.44,-3.4,
18540,1661617064963,-0.8308,0.6234,0.2864,4.58,4.98,-0.49,
18541,1661617064978,-1.1326,0.4964,0.5295,11.24,5.83,-0.3,
18542,1661617064978,-0.8796,0.5931,0.3396,16.28,12.0,1.7,
18543,1661617064978,-1.0344,0.4418,0.3616,18.37,20.3,2.52,
18544,1661617064978,-0.9158,0.4149,0.2805,20.16,28.25,5.34,
18545,1661617064978,-0.7522,0.5345,0.239,22.28,19.02,8.91,
18546,1661617064978,-0.9978,0.6405,0.3445,22.76,11.92,10.18,
18547,1661617064978,-0.7937,0.8988,-0.0193,27.05,-9.47,7.17,
18548,1661617064978,-0.7292,0.7225,-0.345,32.87,0.92,9.72,
18549,1661617064978,-0.8752,0.7362,0.0393,33.86,1.77,7.45,
18550,1661617064978,-0.7385,1.0282,-0.4519,36.65,2.19,6.17,
18551,1661617064978,-0.6516,1.0165,-0.4514,39.37,1.94,1.33,
18552,1661617064978,-0.9158,0.9837,-0.054,41.15,-3.73,-6.51,
18553,1661617064978,-0.8264,0.8251,0.0715,44.05,-9.56,-8.6,
18554,1661617064983,-0.8933,0.5541,0.0085,49.35,-15.39,-8.6,
18555,1661617064983,-0.9021,0.6839,0.1482,55.07,1.51,-6.68,
18556,1661617064984,-0.8953,0.5716,0.0681,55.36,2.28,-8.33,
18557,1661617064984,-0.927,0.2186,0.0071,51.74,12.76,-4.04,
18558,1661617064985,-0.9309,0.3353,0.0539,45.96,-1.11,-6.77,
18559,1661617064985,-0.8611,-0.0612,-0.1765,51.07,-8.8,-4.68,
18560,1661617064985,-1.0002,-0.0026,-0.2234,50.55,-16.32,-5.51,
18561,1661617064985,-0.9329,0.0282,-0.2092,48.25,-3.9,-5.87,
18562,1661617064986,-0.9148,-0.3185,-0.3093,45.67,-10.59,-5.41,
18563,1661617064986,-0.7463,0.013,-0.1926,45.06,-17.35,-3.77,
18564,1661617064986,-0.8381,0.0506,-0.0872,45.74,-21.91,-4.32,
18565,1661617064986,-1.0471,-0.2003,-0.1116,44.05,-17.51,-5.32,
18566,1661617064986,-0.9954,-0.2775,0.0359,37.06,-13.71,-5.23,
18567,1661617064986,-1.1194,-0.3888,0.2136,36.06,-8.97,-1.4,
18568,1661617064986,-1.011,-0.2326,0.1658,35.48,-12.02,-2.41,
18569,1661617064986,-1.2112,-0.4948,0.3826,26.46,-4.91,-3.13,
18570,1661617064986,-1.113,-0.4093,0.2248,22.46,-13.55,-6.42,
18571,1661617064986,-1.1174,-0.2277,0.0998,22.15,-6.86,-7.87,
18572,1661617064986,-1.261,-0.5089,0.3684,20.06,-12.26,-9.52,
18573,1661617064986,-1.1667,-0.38,0.0906,15.26,-12.78,-9.61,
18574,1661617064986,-1.1072,-0.3288,0.0784,13.27,-6.1,-9.61,
18575,1661617064986,-1.1033,-0.2809,0.0408,12.57,-2.97,-12.07,
18576,1661617064986,-1.0618,-0.4508,-0.0222,12.16,0.67,-12.16,
18577,1661617064986,-1.0281,-0.6393,-0.0969,6.97,-2.54,-13.9,
18578,1661617064986,-1.0471,-0.3859,0.0369,1.37,-6.51,-15.53,
18579,1661617064986,-1.1199,-0.6471,0.1121,1.75,-10.59,-16.35,
18580,1661617064986,-1.1672,-0.757,0.1687,-2.43,-8.97,-12.8,
18581,1661617064986,-1.0583,-0.548,0.3245,-6.62,-10.49,-8.15,
18582,1661617064986,-1.3303,-0.6759,0.511,-10.82,-10.49,-3.58,
18583,1661617064986,-1.1521,-0.4489,0.6145,-8.64,-2.8,-3.22,
18584,1661617064986,-1.1965,-0.3624,0.7331,-11.32,4.31,-0.12,
18585,1661617064986,-1.1765,-0.2677,0.7229,-13.61,8.03,-0.85,
18586,1661617064986,-1.1472,-0.1559,0.6819,-16.71,6.08,-1.58,
18587,1661617064986,-1.0613,-0.0368,0.5886,-12.33,5.07,-5.78,
18588,1661617064986,-0.9626,0.2596,0.2229,-7.52,-2.21,3.16,
18589,1661617064986,-1.0945,0.141,0.3518,-4.33,8.03,3.62,
18590,1661617064986,-1.0256,0.2689,0.1448,-3.65,3.04,4.08,
18591,1661617064986,-0.9602,0.5072,0.0627,-8.62,8.62,-2.5,
18592,1661617064986,-0.9387,0.6786,0.1033,-4.82,8.37,-6.59,
18593,1661617064986,-0.9963,0.5702,0.008,-2.72,9.56,-5.23,
18594,1661617065002,-0.8064,0.5824,0.0593,2.87,7.69,-1.13,
18595,1661617065002,-0.8279,0.7401,0.1511,4.27,5.91,-8.6,
18596,1661617065002,-0.8616,0.9803,0.1511,5.89,2.11,-9.98,
18597,1661617065002,-1.0339,0.702,0.1492,10.08,-0.42,-6.51,
18598,1661617065002,-0.9177,0.7313,0.3122,15.36,1.01,-8.97,
18599,1661617065002,-0.8357,0.7621,0.3269,16.57,7.27,-10.16,
18600,1661617065002,-0.7859,0.6087,0.1243,23.16,10.99,-7.14,
18601,1661617065002,-0.8533,0.5726,0.1179,24.57,9.13,-5.32,
18602,1661617065002,-0.8621,0.4691,0.2185,25.05,10.32,-7.41,
18603,1661617065002,-1.0613,0.2938,0.1208,26.56,5.07,-7.32,
18604,1661617065002,-1.0745,0.2743,0.0974,30.97,3.47,-0.85,
18605,1661617065002,-0.9377,0.2049,0.1936,33.86,8.7,-5.69,
18606,1661617065002,-1.0149,0.513,-0.0701,33.06,6.0,0.52,
18607,1661617065002,-0.8723,0.5233,-0.2478,36.67,4.9,0.34,
18608,1661617065002,-0.8913,0.1151,-0.2283,38.95,-9.3,1.24,
18609,1661617065002,-0.8992,0.1874,-0.1921,44.37,-15.06,7.17,
18610,1661617065002,-0.9558,0.4798,-0.0808,49.36,-8.8,4.81,
18611,1661617065002,-0.97,0.618,-0.033,47.96,-12.02,3.34,
18612,1661617065002,-0.8664,0.4671,-0.262,45.74,-17.35,-1.4,
18613,1661617065002,-0.9748,0.3871,0.2493,47.26,-2.71,5.43,
18614,1661617065002,-0.8816,0.5897,-0.2205,48.35,-10.33,1.16,
18615,1661617065002,-0.8796,0.5624,-0.2449,51.54,-0.42,3.25,
18616,1661617065002,-1.0378,0.4149,0.2878,47.96,-2.04,-1.03,
18617,1661617065002,-0.8928,0.7171,-0.1394,46.95,0.75,-6.77,
18618,1661617065002,-0.7468,0.2967,-0.4778,49.27,-6.6,-5.05,
18619,1661617065002,-0.8245,0.2259,-0.0769,53.45,0.84,-10.25,
18620,1661617065002,-0.9104,0.1468,-0.3601,50.57,-11.85,-9.06,
18621,1661617065002,-0.97,-0.0568,-0.3396,47.35,-13.36,-13.17,
18622,1661617065002,-1.0671,-0.1862,0.2082,43.26,-19.12,-19.18,
18623,1661617065015,-1.0832,-0.5368,0.093,40.27,-16.08,-9.52,
18624,1661617065015,-1.115,-0.4581,0.0066,29.48,-16.08,-10.97,
18625,1661617065016,-1.092,-0.3551,0.3591,26.56,-0.94,-9.88,
18626,1661617065016,-1.1599,-0.8527,0.4983,25.34,-10.66,-10.43,
18627,1661617065017,-1.1394,-0.6647,0.1955,21.25,-8.89,-9.15,
18628,1661617065017,-1.1667,-0.5621,0.2371,15.97,-8.63,-8.05,
18629,1661617065018,-1.0554,-0.5509,0.1086,10.66,-2.64,-5.69,
18630,1661617065018,-1.1721,-0.3746,0.0823,8.68,-9.06,-7.14,
18631,1661617065018,-1.0847,-0.5158,-0.1604,11.76,-14.39,-12.52,
18632,1661617065018,-1.0818,-0.5827,-0.1004,10.59,-17.61,-5.6,
18633,1661617065018,-1.1291,-0.4694,0.2688,7.37,-8.37,-11.43,
18634,1661617065018,-1.0266,-0.2672,0.0652,1.77,-21.83,-13.53,
18635,1661617065018,-1.0217,-0.2887,-0.0017,0.38,-8.56,-13.35,
18636,1661617065018,-1.092,-0.5231,0.426,-4.03,-7.37,-12.43,
18637,1661617065018,-1.094,-0.4581,0.3157,-4.82,-0.35,-12.07,
18638,1661617065018,-1.239,-0.3331,0.6638,-4.21,-0.01,-13.99,
18639,1661617065018,-1.197,-0.256,0.4431,-3.92,-1.87,-13.81,
18640,1661617065018,-1.1511,-0.4596,0.4416,-6.03,5.07,-11.43,
18641,1661617065018,-1.1599,-0.2916,0.5544,-12.53,10.65,-6.24,
18642,1661617065018,-1.0954,-0.2355,0.2869,-10.03,5.41,-6.15,
18643,1661617065018,-1.0818,-0.2462,0.3,-9.84,3.28,-2.67,
18644,1661617065018,-1.1086,-0.111,0.3469,-10.73,-2.12,-3.58,
18645,1661617065018,-1.0593,-0.1935,0.3518,-10.03,3.47,0.7,
18646,1661617065018,-1.1184,-0.2741,0.3157,-7.72,2.7,2.15,
18647,1661617065018,-0.9626,0.1478,0.1936,-11.83,2.19,2.89,
18648,1661617065018,-1.1287,0.0687,0.5325,-13.63,7.01,2.25,
18649,1661617065018,-1.1096,0.1581,0.5339,-6.32,5.5,-0.03,
18650,1661617065018,-0.8933,0.3036,-0.0051,-1.71,2.78,5.25,
18651,1661617065018,-0.8723,0.3841,0.4192,3.37,19.37,3.89,
18652,1661617065018,-1.0349,0.703,0.279,6.97,7.6,1.07,
18653,1661617065018,-0.883,0.7601,0.1433,11.26,9.72,4.99,
18654,1661617065018,-0.8122,0.5282,0.3381,9.47,-5.5,4.9,
18655,1661617065018,-1.0071,0.7582,0.1604,8.97,-8.97,-0.85,
18656,1661617065031,-0.8987,0.6639,0.0442,17.96,-4.24,3.71,
18657,1661617065031,-0.8274,0.7464,0.009,26.96,9.46,0.61,
18658,1661617065031,-0.7795,1.0423,0.1096,31.55,19.95,-3.22,
18659,1661617065031,-0.9138,0.8143,0.0242,33.55,19.53,1.33,
18660,1661617065031,-0.8704,0.9549,0.1423,25.18,13.86,-5.32,
18661,1661617065031,-0.9216,0.9745,0.134,26.37,1.51,0.43,
18662,1661617065031,-0.7805,0.951,-0.0877,28.26,-8.72,-8.69,
18663,1661617065031,-0.7961,1.0199,-0.1589,43.96,-1.45,-8.69,
18664,1661617065031,-0.8538,0.7323,0.1189,50.57,9.89,-9.06,
18665,1661617065035,-0.8796,0.6966,-0.1233,44.55,0.92,-13.99,
18666,1661617065035,-0.887,0.7303,-0.0711,41.26,3.38,-11.88,
18667,1661617065035,-1.0144,0.4359,0.0461,44.16,-4.31,-11.88,
18668,1661617065035,-0.989,0.3827,-0.0794,48.95,-8.04,-9.34,
18669,1661617065035,-0.8293,0.1546,-0.1629,49.54,-11.68,-7.6,
18670,1661617065035,-1.0041,0.1302,-0.1248,48.55,-8.04,-3.22,
18671,1661617065035,-0.8767,0.2889,0.0413,48.16,-1.11,-2.67,
18672,1661617065035,-1.074,-0.0241,-0.1389,48.64,-2.64,-2.59,
18673,1661617065035,-0.7107,-0.0006,-0.1575,46.95,-10.33,-6.77,
18674,1661617065035,-0.9128,0.0375,-0.0183,45.07,-9.82,-7.69,
18675,1661617065035,-0.8157,0.1166,-0.3582,45.67,-7.63,-11.15,
18676,1661617065035,-0.9143,-0.0656,-0.2317,45.16,-7.37,-8.51,
18677,1661617065035,-0.9802,-0.2272,0.1091,43.56,-6.6,-8.15,
18678,1661617065035,-0.989,-0.0817,-0.135,36.97,-19.63,-9.98,
18679,1661617065035,-0.9695,-0.2194,-0.0657,39.64,-14.39,-11.43,
18680,1661617065035,-1.1658,-0.2003,0.3015,30.76,-13.29,-12.25,
18681,1661617065035,-1.0085,-0.1134,0.1755,26.37,-12.19,-11.52,
18682,1661617065035,-1.1472,-0.4274,0.2712,26.47,-11.76,-16.17,
18683,1661617065035,-1.1125,-0.4391,0.3,28.17,-4.31,-13.26,
18684,1661617065035,-1.0911,-0.6476,-0.0032,25.95,-1.52,-11.98,
18685,1661617065035,-1.1179,-0.5402,0.0984,17.47,0.84,-17.54,
18686,1661617065035,-1.155,-0.7047,-0.0022,12.88,-6.86,-17.0,
18687,1661617065035,-1.0105,-0.8302,-0.3059,10.08,-11.85,-13.99,
18688,1661617065035,-0.9773,-0.5968,-0.1028,6.65,-12.95,-7.05,
18689,1661617065035,-1.1941,-0.9103,0.1316,5.17,-12.78,-4.5,
18690,1661617065035,-1.113,-0.8331,-0.0564,2.07,-23.77,-4.59,
18691,1661617065035,-1.1301,-0.7179,0.5476,-3.94,-13.12,-3.4,
18692,1661617065035,-1.2019,-0.7067,0.6916,-10.12,-7.63,-3.49,
18693,1661617065035,-1.0076,-0.5529,0.3205,-5.43,-6.7,-3.03,
18694,1661617065035,-1.1521,-0.591,0.5754,-6.33,3.12,-2.85,
18695,1661617065035,-1.1116,-0.3986,0.6687,-5.02,3.71,-4.5,
18696,1661617065035,-1.2922,-0.4308,0.344,-5.02,4.4,-1.49,
18697,1661617065035,-1.1702,-0.2081,0.5437,-12.73,4.21,-0.49,
18698,1661617065050,-1.0994,0.2274,0.2712,-18.62,-1.45,-1.68,
18699,1661617065050,-0.9968,0.1595,0.2302,-16.33,3.38,1.7,
18700,1661617065050,-1.0295,0.1004,0.2024,-8.1,3.38,-2.04,
18701,1661617065050,-0.9299,0.2928,0.3762,-3.53,7.86,-4.5,
18702,1661617065050,-1.0085,0.4579,0.322,-8.73,-2.71,-5.05,
18703,1661617065050,-0.9919,0.6991,0.3874,-8.52,4.31,-8.05,
18704,1661617065050,-0.9353,0.6004,0.4192,-8.52,7.01,-6.15,
18705,1661617065055,-0.9089,0.4466,0.2092,-3.63,13.1,-10.25,
18706,1661617065055,-0.9045,0.6522,0.1643,1.69,13.19,-11.79,
18707,1661617065055,-0.9597,0.4354,0.1365,8.36,16.99,-9.06,
18708,1661617065055,-0.9289,0.5179,0.0798,10.27,10.06,-7.05,
18709,1661617065055,-1.0051,0.5946,0.1208,10.66,4.57,-7.05,
18710,1661617065055,-1.0505,0.4227,0.2546,10.47,-0.68,-5.14,
18711,1661617065055,-0.9729,0.4379,0.1721,12.66,-5.34,-1.22,
18712,1661617065055,-0.8332,0.4354,0.2927,15.67,-0.85,-5.51,
18713,1661617065055,-0.7097,0.5389,0.3035,18.77,5.83,1.51,
18714,1661617065055,-1.0032,0.4178,0.2585,26.96,13.02,-2.76,
18715,1661617065055,-1.0725,0.2557,0.3933,29.16,23.5,-0.67,
18716,1661617065055,-0.8513,0.6131,0.3479,22.26,14.62,0.8,
18717,1661617065055,-0.9441,0.8197,0.1848,21.06,11.75,3.44,
18718,1661617065055,-0.8674,0.6385,-0.3464,29.16,1.61,1.16,
18719,1661617065055,-0.6799,0.5301,-0.5349,38.85,0.67,5.8,
18720,1661617065055,-0.8035,0.5306,-0.0422,43.55,2.87,-0.03,
18721,1661617065055,-0.8777,0.8661,-0.2122,44.23,-7.53,2.98,
18722,1661617065055,-0.7634,0.6869,-0.3689,46.23,-3.9,-2.5,
18723,1661617065055,-0.9363,0.6258,0.0022,42.74,-5.0,-2.76,
18724,1661617065055,-0.7971,0.7645,-0.0007,42.27,-5.08,-6.51,
18725,1661617065055,-0.8196,0.6566,0.0203,47.74,-7.53,-2.94,
18726,1661617065055,-0.9055,0.5487,0.0662,53.85,-1.02,-7.96,
18727,1661617065055,-0.9812,0.536,-0.0042,58.26,3.54,-6.42,
18728,1661617065055,-0.9573,0.2079,0.1243,53.05,14.03,-5.87,
18729,1661617065055,-0.8518,0.2103,-0.1458,48.75,8.87,-7.23,
18730,1661617065055,-0.8166,0.1239,-0.3225,42.07,2.11,-12.62,
18731,1661617065055,-0.8298,-0.0246,-0.5178,45.07,-12.62,-12.07,
18732,1661617065055,-0.9514,0.0326,-0.2922,45.45,-9.06,-9.61,
18733,1661617065055,-0.9499,-0.4313,-0.1736,42.95,-14.48,-9.34,
18734,1661617065055,-0.9983,-0.3678,-0.2922,38.07,-22.08,-9.88,
18735,1661617065055,-0.9885,-0.2125,0.1516,34.25,-20.81,-9.24,
18736,1661617065055,-1.1301,-0.4445,0.2585,27.66,-12.95,-13.81,
18737,1661617065055,-0.9495,-0.4103,0.1594,24.66,-12.02,-12.34,
18738,1661617065055,-1.1013,-0.4884,0.4006,25.95,-2.54,-9.79,
18739,1661617065055,-1.0007,-0.4918,0.2092,29.28,-12.02,-9.98,
18740,1661617065055,-1.1282,-0.4777,0.2473,24.96,-1.02,-11.24,
18741,1661617065055,-1.0593,-0.3043,0.1296,13.56,-7.44,-15.07,
18742,1661617065070,-1.1404,-0.4918,-0.1096,10.59,-15.99,-15.35,
18743,1661617065070,-1.137,-0.59,0.0246,13.06,-17.61,-10.6,
18744,1661617065070,-1.0359,-0.255,0.0505,10.97,-11.43,-10.25,
18745,1661617065070,-1.0276,-0.2965,0.0046,5.17,-10.16,-12.89,
18746,1661617065070,-1.0725,-0.4601,0.0115,3.57,-11.09,-11.24,
18747,1661617065070,-0.9543,-0.4635,0.2375,2.68,-1.02,-16.17,
18748,1661617065070,-1.0261,-0.4684,0.2585,-2.11,5.5,-14.34,
18749,1661617065070,-1.0349,-0.3639,0.2551,-4.73,6.08,-18.72,
18750,1661617065070,-1.071,-0.6452,0.4158,-3.01,2.37,-10.16,
18751,1661617065070,-1.1321,-0.6476,0.2859,-5.31,-11.33,-11.98,
18752,1661617065070,-1.1682,-0.549,0.488,-3.92,-2.29,-8.51,
18753,1661617065070,-1.2331,-0.4855,0.5544,-9.43,2.87,-10.07,
18754,1661617065070,-1.1199,-0.3078,0.4343,-21.3,-0.52,-5.78,
18755,1661617065070,-1.0974,-0.3292,0.5227,-18.62,-3.38,-3.22,
18756,1661617065070,-1.2366,-0.4279,0.7175,-10.03,6.0,-3.95,
18757,1661617065070,-0.9582,-0.1798,0.4744,-5.53,1.01,-3.67,
18758,1661617065070,-1.1623,0.0765,0.4919,-10.01,3.21,-3.58,
18759,1661617065070,-1.0754,0.1366,0.3777,-5.92,7.01,-1.03,
18760,1661617065070,-1.052,-0.0509,0.1985,0.67,14.79,2.43,
18761,1661617065070,-0.9324,0.1805,0.0671,-1.34,14.38,1.16,
18762,1661617065070,-0.9553,0.5013,-0.0837,-1.73,8.62,2.7,
18763,1661617065070,-0.9416,0.4256,0.1287,0.99,9.97,0.61,
18764,1661617065070,-0.9812,0.6424,0.135,5.96,4.05,4.17,
18765,1661617065070,-0.9592,0.6795,0.1072,7.17,0.16,4.26,
18766,1661617065070,-0.9656,0.6273,0.3049,9.67,1.09,-2.32,
18767,1661617065070,-0.9265,1.014,0.4924,11.18,7.94,-2.94,
18768,1661617065070,-0.821,0.9828,0.4065,17.26,6.67,-1.68,
18769,1661617065070,-0.8157,0.8724,0.0496,19.96,9.39,-8.51,
18770,1661617065070,-0.8069,0.9374,0.2556,29.66,23.93,-5.6,
18771,1661617065070,-0.9617,0.6664,0.2624,34.38,23.26,-6.59,
18772,1661617065070,-0.9685,0.7743,-0.1028,34.77,19.11,-7.41,
18773,1661617065070,-0.9729,0.7401,-0.0955,29.26,7.6,-8.42,
18774,1661617065070,-0.9001,0.6092,-0.0232,28.85,-1.61,-2.59,
18775,1661617065070,-0.8542,0.6112,-0.2268,32.06,-2.38,-5.87,
18776,1661617065086,-0.8274,0.5399,-0.2254,37.93,-0.35,-3.4,
18777,1661617065086,-0.947,0.534,-0.01,37.25,-5.5,-3.03,
18778,1661617065086,-0.9128,0.4881,0.1829,39.95,-2.71,-5.32,
18779,1661617065086,-0.9773,0.3988,-0.0276,37.06,-7.2,-3.58,
18780,1661617065086,-0.6521,0.5936,-0.0291,41.35,-6.01,-5.6,
18781,1661617065086,-0.8909,0.6307,0.1721,44.05,6.08,-2.85,
18782,1661617065086,-0.9958,0.4676,-0.0667,48.87,4.73,-9.06,
18783,1661617065086,-0.8049,0.3822,-0.4578,51.76,-1.52,-1.4,
18784,1661617065086,-0.9578,0.3509,0.1926,47.47,6.0,-6.86,
18785,1661617065086,-0.8855,0.3905,-0.3591,44.16,-11.68,-9.24,
18786,1661617065086,-0.6916,0.1371,-0.5759,42.34,-14.55,-11.43,
18787,1661617065086,-0.8054,0.2645,-0.0579,42.65,-2.64,-11.88,
18788,1661617065086,-0.8269,0.2137,-0.1804,43.55,-9.73,-12.62,
18789,1661617065086,-0.9299,-0.2335,-0.2366,46.26,-13.36,-11.15,
18790,1661617065086,-1.0627,-0.0661,0.2663,42.25,-13.12,-19.36,
18791,1661617065086,-1.0286,-0.1168,0.1311,35.15,-8.89,-16.9,
18792,1661617065086,-1.0159,-0.3644,0.0427,29.17,-2.29,-17.54,
18793,1661617065086,-1.0203,-0.3844,0.3113,29.16,-1.61,-18.26,
18794,1661617065086,-1.0129,-0.6632,-0.0349,28.56,-6.7,-17.36,
18795,1661617065086,-1.1252,-0.6261,0.1511,26.87,-7.44,-17.91,
18796,1661617065086,-1.1399,-0.8024,0.261,19.48,-12.52,-10.34,
18797,1661617065086,-1.156,-0.8644,-0.1497,12.48,-14.72,-15.07,
18798,1661617065086,-1.0471,-0.8092,0.031,6.68,-6.18,-9.06,
18799,1661617065086,-1.1316,-0.9279,0.177,6.27,-8.21,-8.15,
18800,1661617065086,-1.0144,-0.7848,0.0969,4.88,-14.48,-8.69,
18801,1661617065086,-1.1877,-0.7374,0.0901,7.37,-20.14,-11.43,
18802,1661617065086,-1.1247,-0.8522,0.2756,1.97,-16.75,-4.96,
18803,1661617065086,-1.1057,-0.5392,0.3489,-2.52,-9.3,-7.23,
18804,1661617065086,-1.0847,-0.483,0.3074,-2.12,2.02,-6.06,
18805,1661617065086,-1.0276,-0.5431,-0.0037,-4.84,-0.35,-1.95,
18806,1661617065086,-1.0715,-0.505,0.6628,-6.01,11.49,-2.41,
18807,1661617065086,-1.1545,-0.2853,0.303,-5.02,-13.45,-4.5,
18808,1661617065102,-1.0989,-0.2965,0.2678,-5.33,-9.9,-6.96,
18809,1661617065102,-1.1306,-0.3185,0.4758,-6.14,0.84,-6.06,
18810,1661617065102,-1.095,-0.0016,0.5867,-13.02,9.97,-9.34,
18811,1661617065102,-1.094,0.016,0.3962,-15.72,7.43,-6.59,
18812,1661617065102,-1.0486,0.0433,0.3406,-12.42,3.47,-6.68,
18813,1661617065102,-0.9587,0.1239,0.3557,-4.82,6.43,-2.32,
18814,1661617065102,-1.0598,0.1117,0.384,-2.21,12.85,-1.95,
18815,1661617065102,-1.0588,0.203,0.3391,-3.82,8.62,-4.22,
18816,1661617065102,-1.029,0.1517,0.1721,-8.1,10.56,-3.86,
18817,1661617065102,-1.0398,0.2772,0.258,-8.32,2.7,-7.69,
18818,1661617065102,-1.0432,0.3378,0.2229,-4.43,0.75,-2.59,
18819,1661617065102,-1.0105,0.1898,0.2283,3.28,-2.29,4.53,
18820,1661617065102,-1.0256,0.2279,0.1238,8.47,-4.31,3.44,
18821,1661617065102,-0.9919,0.5121,0.4499,4.47,11.07,5.98,
18822,1661617065102,-1.2224,0.451,0.573,5.08,18.77,3.44,
18823,1661617065102,-0.9788,0.5951,0.3157,9.06,22.33,-0.03,
18824,1661617065102,-0.9944,0.6122,0.2956,14.16,31.38,1.16,
18825,1661617065102,-0.9192,0.5033,0.1907,23.15,26.72,2.98,
18826,1661617065102,-0.7175,0.5892,0.1091,22.96,5.41,6.26,
18827,1661617065102,-1.0295,0.6825,0.3152,21.86,0.42,3.25,
18828,1661617065102,-0.8913,0.8915,0.1208,27.95,-15.65,5.25,
18829,1661617065102,-0.7883,0.7616,-0.3616,27.46,-9.06,9.26,
18830,1661617065102,-0.8767,0.7801,0.3074,29.75,16.82,5.16,
18831,1661617065102,-0.803,1.0472,-0.3499,31.66,10.06,4.9,
18832,1661617065102,-0.741,0.9867,-0.4168,37.44,14.38,-1.86,
18833,1661617065102,-0.9275,0.849,0.137,42.25,4.64,2.25,
18834,1661617065102,-0.9084,0.8905,0.1194,43.75,-4.48,-7.23,
18835,1661617065102,-0.9099,0.6888,-0.0945,42.77,-6.7,-7.32,
18836,1661617065102,-0.9123,0.8353,-0.0388,47.27,3.71,-8.42,
18837,1661617065115,-0.866,0.4559,-0.2087,48.75,13.1,-11.61,
18838,1661617065115,-0.8855,0.3085,-0.2527,49.65,8.46,-10.07,
18839,1661617065115,-0.9455,0.4452,-0.0969,49.06,-12.19,-14.26,
18840,1661617065115,-0.8928,0.0824,-0.1682,48.87,-14.64,-6.51,
18841,1661617065116,-1.0227,0.1337,-0.1555,45.45,-6.6,-10.34,
18842,1661617065116,-0.8933,0.1127,-0.1599,41.17,3.71,-7.6,
18843,1661617065117,-0.8533,-0.4118,-0.2717,41.35,-7.2,-10.88,
18844,1661617065117,-0.7585,-0.0641,-0.1589,41.26,-13.2,-9.61,
18845,1661617065118,-0.9983,-0.2135,-0.0916,40.65,-16.08,-11.52,
18846,1661617065118,-0.9685,-0.4098,-0.1336,39.85,-7.03,-13.81,
18847,1661617065118,-1.072,-0.4147,0.0432,34.67,-11.17,-10.88,
18848,1661617065118,-0.9719,-0.297,-0.03,26.15,-20.57,-14.34,
18849,1661617065118,-1.0461,-0.2946,-0.0115,25.27,-19.04,-10.79,
18850,1661617065118,-1.0876,-0.6266,0.3806,28.58,2.7,-10.07,
18851,1661617065118,-0.9924,-0.2741,0.0232,21.77,-14.48,-7.23,
18852,1661617065118,-1.1223,-0.4962,0.345,17.16,-16.16,-14.08,
18853,1661617065118,-1.1418,-0.6139,0.3816,19.06,-12.1,-15.99,
18854,1661617065118,-0.9924,-0.4386,-0.0794,14.36,4.14,-14.89,
18855,1661617065118,-0.9919,-0.421,0.0105,11.26,-0.09,-15.9,
18856,1661617065118,-1.0852,-0.5504,-0.0286,11.27,-7.7,-16.9,
18857,1661617065118,-0.9802,-0.7687,-0.1687,11.18,-12.1,-16.08,
18858,1661617065118,-1.009,-0.6447,-0.0505,2.99,-9.3,-12.62,
18859,1661617065118,-1.0261,-0.6007,0.1033,-1.12,-10.33,-9.98,
18860,1661617065118,-1.1589,-0.9747,0.2629,-3.42,-14.81,-11.88,
18861,1661617065118,-1.0349,-0.6481,0.3586,-9.51,-19.21,-9.06,
18862,1661617065118,-1.1765,-0.7086,0.6077,-10.03,-2.64,-4.96,
18863,1661617065118,-1.2341,-0.754,0.6995,-7.22,2.19,-2.5,
18864,1661617065118,-1.1287,-0.5158,0.5764,-9.63,0.84,-5.96,
18865,1661617065118,-1.2136,-0.5353,0.6267,-13.22,1.25,0.89,
18866,1661617065118,-1.2258,-0.4723,0.6145,-14.74,-5.5,-1.4,
18867,1661617065118,-1.2053,-0.3527,0.4914,-13.25,7.6,6.9,
18868,1661617065118,-1.0398,0.0052,0.2737,-12.93,5.15,-0.76,
18869,1661617065118,-1.0535,0.099,0.2214,-10.53,3.64,5.98,
18870,1661617065118,-1.0705,-0.1554,0.3494,-5.63,-0.52,4.26,
18871,1661617065118,-1.053,0.0174,0.2551,-7.94,-5.5,4.08,
18872,1661617065118,-0.9036,0.5277,0.2331,-7.63,-5.67,3.71,
18873,1661617065118,-1.0867,0.4789,0.4192,-5.53,0.16,2.43,
18874,1661617065118,-1.0364,0.4867,0.4119,-0.63,2.87,0.98,
18875,1661617065118,-1.0002,0.474,0.428,0.09,10.99,0.34,
18876,1661617065118,-0.9958,0.7757,0.468,3.07,14.88,4.26,
18877,1661617065134,-1.0437,0.8168,0.426,11.87,19.95,1.42,
18878,1661617065134,-0.9368,0.6175,0.2825,12.77,24.77,-0.49,
18879,1661617065134,-0.886,0.8451,0.2419,10.57,23.59,-1.68,
18880,1661617065134,-0.9094,0.8358,0.176,13.98,17.34,1.07,
18881,1661617065134,-0.9167,0.557,-0.0037,17.87,7.77,0.16,
18882,1661617065134,-0.8494,0.6708,-0.0925,21.67,2.37,1.51,
18883,1661617065134,-0.9568,0.5594,0.0828,25.56,1.61,-3.86,
18884,1661617065134,-1.094,0.4852,0.1086,25.85,2.44,-2.67,
18885,1661617065134,-1.0217,0.474,0.1594,28.56,11.58,0.52,
18886,1661617065134,-0.9128,0.6551,0.3166,24.96,13.35,-0.39,
18887,1661617065134,-0.6526,0.9051,0.1101,25.47,6.43,-8.88,
18888,1661617065134,-1.0178,0.5458,0.0964,33.16,6.93,-7.87,
18889,1661617065134,-0.9895,0.3876,0.0867,41.46,9.3,-11.79,
18890,1661617065134,-0.779,0.7176,-0.1912,40.65,2.19,-6.51,
18891,1661617065134,-0.988,0.8544,0.0476,37.37,13.69,-9.15,
18892,1661617065134,-0.7932,0.7264,-0.3836,43.53,4.98,-14.98,
18893,1661617065134,-0.6877,0.5629,-0.3709,44.55,1.68,-9.34,
18894,1661617065134,-0.8835,0.6879,-0.156,46.25,-8.63,-13.9,
18895,1661617065134,-0.8777,0.7074,-0.469,45.74,-20.81,-8.69,
18896,1661617065134,-0.7346,0.4144,-0.2034,49.04,-5.08,-16.26,
18897,1661617065134,-0.8982,0.5438,0.1306,43.56,5.74,-14.43,
18898,1661617065134,-0.7117,0.5047,-0.3894,45.65,0.75,-20.73,
18899,1661617065134,-0.7966,0.0077,-0.0925,45.85,3.28,-19.27,
18900,1661617065134,-0.8728,0.0443,0.1189,42.86,-1.19,-25.39,
18901,1661617065134,-0.9499,-0.2291,-0.5208,42.45,-15.22,-19.45,
18902,1661617065134,-0.9714,-0.3624,-0.0222,41.04,-3.38,-13.71,
18903,1661617065134,-0.9958,-0.5626,0.0325,33.87,-12.26,-14.17,
18904,1661617065134,-0.9988,-0.6911,-0.3279,29.68,-24.29,-16.81,
18905,1661617065134,-0.9675,-0.5221,0.1038,23.94,-21.91,-13.17,
18906,1661617065134,-1.0579,-0.9816,0.3049,21.86,-12.69,-16.17,
18907,1661617065134,-1.0974,-0.923,0.0613,19.16,-17.25,-13.26,
18908,1661617065134,-1.0183,-0.7833,0.2043,15.56,-15.15,-13.26,
18909,1661617065134,-1.0305,-0.86,0.2551,10.57,-13.36,-17.0,
18910,1661617065134,-0.9758,-0.758,0.1692,9.37,-2.71,-7.6,
18911,1661617065134,-1.1936,-0.7643,0.1555,8.18,-4.57,-11.06,
18912,1661617065134,-0.988,-0.8937,-0.1995,6.68,-13.55,-3.22,
18913,1661617065134,-1.1599,-0.6759,0.3005,7.48,-11.52,-5.6,
18914,1661617065150,-1.0622,-0.422,0.0515,4.58,-18.19,-2.13,
18915,1661617065150,-0.9455,-0.4572,-0.1389,-2.03,-13.79,-6.15,
18916,1661617065150,-1.0618,-0.6076,0.4231,-6.35,-6.7,-1.77,
18917,1661617065150,-1.0823,-0.549,0.2864,-3.63,-15.82,-4.32,
18918,1661617065150,-1.0676,-0.4411,0.447,-2.41,-2.29,-3.77,
18919,1661617065150,-1.1282,-0.2243,0.7107,-6.82,-0.85,-5.23,
18920,1661617065150,-1.0359,-0.3146,0.3459,-9.83,4.47,-3.58,
18921,1661617065150,-1.1448,-0.4508,0.6843,-8.52,11.75,-0.58,
18922,1661617065150,-1.1145,-0.2091,0.5398,-11.02,7.27,-5.6,
18923,1661617065150,-1.0964,-0.233,0.1789,-11.72,4.31,-2.13,
18924,1661617065150,-1.1985,-0.1163,0.446,-11.22,5.83,-2.41,
18925,1661617065150,-1.0788,-0.2047,0.3733,-11.72,1.51,6.17,
18926,1661617065150,-1.0906,-0.2433,0.324,-11.43,1.44,4.44,
18927,1661617065150,-1.0613,0.0585,0.2263,-11.02,-5.0,4.81,
18928,1661617065150,-1.0256,0.0961,0.4211,-9.22,-1.87,6.72,
18929,1661617065150,-1.1975,0.1092,0.7009,-7.11,4.73,4.9,
18930,1661617065150,-0.9997,0.2699,0.4192,-1.73,-1.02,5.43,
18931,1661617065150,-1.0705,0.2967,0.1824,0.18,4.64,3.25,
18932,1661617065150,-1.0774,0.638,0.6672,2.46,4.31,-3.13,
18933,1661617065150,-0.9958,0.8055,0.1785,4.47,-1.11,2.98,
18934,1661617065150,-1.133,0.558,0.2073,7.37,18.01,3.07,
18935,1661617065150,-0.9944,0.6981,0.2082,12.16,21.06,5.16,
18936,1661617065150,-0.9031,0.8006,0.0994,19.36,31.79,4.26,
18937,1661617065150,-0.885,0.87,-0.096,19.18,18.1,7.45,
18938,1661617065150,-0.8347,1.1468,-0.0051,12.36,7.1,3.16,
18939,1661617065150,-0.8166,1.0072,-0.0413,17.74,-5.0,-0.39,
18940,1661617065150,-0.9607,0.8075,-0.0335,28.17,0.75,5.25,
18941,1661617065150,-0.8572,1.0795,0.238,36.56,10.9,-4.96,
18942,1661617065150,-0.8884,0.9388,0.0505,32.16,17.58,0.34,
18943,1661617065150,-0.8689,0.9349,-0.0261,28.27,14.03,-4.96,
18944,1661617065150,-0.9602,0.8719,0.1111,30.26,11.25,-6.24,
18945,1661617065150,-0.8723,0.6185,0.1282,37.15,7.1,-5.87,
18946,1661617065150,-0.8977,0.7088,-0.1755,42.16,3.64,-15.99,
18947,1661617065150,-0.8479,0.5863,0.0305,42.27,6.5,-11.06,
18948,1661617065150,-0.9934,0.4769,-0.2097,35.55,-3.48,-17.09,
18949,1661617065166,-0.7873,0.2269,-0.3157,37.76,2.54,-8.15,
18950,1661617065166,-0.8044,0.1078,-0.3303,46.23,-0.01,-10.88,
18951,1661617065166,-0.7561,0.3627,-0.0481,47.15,-1.52,-10.07,
18952,1661617065166,-0.949,0.2733,-0.1521,41.15,-24.79,-12.43,
18953,1661617065166,-0.968,-0.0319,-0.2185,39.35,-14.64,-8.79,
18954,1661617065166,-0.823,0.0765,0.0998,40.63,9.97,-5.23,
18955,1661617065166,-0.844,-0.0397,-0.1072,42.36,6.84,-8.97,
18956,1661617065166,-0.7678,-0.0939,-0.4343,36.65,-22.76,-9.24,
18957,1661617065166,-0.9871,-0.2697,0.2024,41.75,-6.77,-11.61,
18958,1661617065166,-0.947,-0.1608,-0.2532,40.75,-10.16,-13.99,
18959,1661617065166,-0.8855,-0.3219,-0.1682,29.16,-9.14,-12.98,
18960,1661617065166,-1.0569,-0.3678,0.22,27.56,-22.43,-11.15,
18961,1661617065166,-0.907,-0.2194,-0.0554,28.27,-20.81,-20.0,
18962,1661617065166,-1.0774,-0.5744,0.2048,25.95,-6.01,-15.35,
18963,1661617065166,-1.0456,-0.6168,0.2717,23.67,-1.95,-16.81,
18964,1661617065166,-0.988,-0.6456,0.0876,19.06,-12.19,-16.72,
18965,1661617065166,-1.0481,-0.6437,0.1443,14.46,-7.2,-14.62,
18966,1661617065166,-1.0681,-0.6124,0.2532,9.87,-1.11,-9.88,
18967,1661617065166,-1.0134,-1.0021,-0.1804,11.38,-4.48,-6.86,
18968,1661617065166,-1.0129,-0.8908,-0.134,7.37,-10.75,-7.6,
18969,1661617065166,-1.0579,-0.799,0.2659,5.06,-13.88,-7.32,
18970,1661617065166,-1.1902,-0.9923,-0.0325,-1.33,-24.2,-7.5,
18971,1661617065166,-0.9607,-0.8014,0.0608,-10.12,-18.54,-5.69,
18972,1661617065166,-1.2014,-0.8546,0.7219,-7.63,-6.44,-2.41,
18973,1661617065166,-1.0188,-0.7287,0.3342,-7.92,-11.0,-2.5,
18974,1661617065178,-1.0964,-0.6178,0.2385,-4.03,-9.23,-0.76,
18975,1661617065178,-1.1296,-0.5763,0.7312,-6.1,6.93,-1.13,
18976,1661617065179,-1.1829,-0.5182,0.53,-11.43,0.67,-1.95,
18977,1661617065179,-1.1633,-0.6427,0.4621,-12.12,10.82,-0.03,
18978,1661617065179,-1.0847,-0.1344,0.3928,-13.22,2.11,-5.14,
18979,1661617065180,-1.0539,0.017,0.2742,-15.7,0.84,0.89,
18980,1661617065180,-1.135,-0.0543,0.2414,-14.02,-7.27,3.62,
18981,1661617065181,-1.1306,0.0077,0.3357,-10.93,-3.31,2.89,
18982,1661617065181,-1.0408,0.1781,0.3616,-8.42,-3.9,1.07,
18983,1661617065181,-1.0837,0.3968,0.3704,-4.93,6.26,3.8,
18984,1661617065181,-0.9919,0.4852,0.4831,-7.11,6.34,0.25,
18985,1661617065181,-1.0037,0.4139,0.3723,-8.93,10.65,0.34,
18986,1661617065181,-1.0398,0.5262,0.3962,-2.82,12.09,4.17,
18987,1661617065181,-1.1164,0.5624,0.4187,-0.54,14.12,1.97,
18988,1661617065181,-1.0178,0.4842,0.2727,8.47,14.79,-0.03,
18989,1661617065181,-0.9968,0.7015,0.1472,6.97,12.18,0.06,
18990,1661617065181,-1.0037,0.6669,0.2385,5.38,12.0,-1.31,
18991,1661617065181,-1.0788,0.5091,0.1936,6.36,8.87,-1.03,
18992,1661617065181,-0.9377,0.5287,0.137,10.27,10.99,-2.5,
18993,1661617065181,-1.1003,0.5521,0.2253,14.46,13.52,2.15,
18994,1661617065181,-0.8679,0.7005,0.1789,16.16,18.18,-1.86,
18995,1661617065181,-1.029,0.6073,0.2507,19.48,6.0,2.15,
18996,1661617065181,-1.0037,0.4769,0.2131,22.66,10.23,-2.59,
18997,1661617065181,-0.8469,0.8226,0.384,20.96,11.42,-3.58,
18998,1661617065181,-0.9602,0.8988,0.3918,23.27,21.3,-0.94,
18999,1661617065181,-0.7229,0.7616,-0.4788,28.06,0.92,1.33,
19000,1661617065181,-0.843,0.6688,-0.3323,28.17,15.05,-0.49,
19001,1661617065181,-0.9343,0.8426,0.3538,34.38,13.19,-3.22,
19002,1661617065181,-0.8684,1.0824,-0.471,40.05,3.71,-2.85,
19003,1661617065181,-0.8376,0.7679,-0.4202,37.46,1.61,-1.49,
19004,1661617065181,-0.9573,0.8631,-0.1458,36.16,-2.8,-9.52,
19005,1661617065181,-0.8264,0.829,-0.1741,38.56,-3.81,-7.6,
19006,1661617065181,-0.8996,0.5404,-0.2214,48.16,-1.61,-9.98,
19007,1661617065181,-0.8538,0.5956,-0.2058,46.84,-3.22,-11.88,
19008,1661617065181,-0.9231,0.3465,-0.0632,39.85,-3.14,-10.51,
19009,1661617065181,-0.9221,0.1776,0.0876,44.65,0.51,-18.19,
19010,1661617065181,-0.7956,0.0433,-0.2361,43.75,1.01,-15.71,
19011,1661617065181,-0.8308,-0.2296,-0.3796,40.95,3.71,-14.52,
19012,1661617065181,-0.9753,-0.216,-0.113,35.35,-5.17,-15.16,
19013,1661617065181,-0.8855,-0.673,-0.1648,37.66,-11.59,-12.25,
19014,1661617065197,-0.9368,-0.6647,-0.4177,35.84,-18.28,-12.07,
19015,1661617065197,-0.9221,-0.5143,-0.0115,26.27,-15.74,-10.88,
19016,1661617065197,-1.0525,-0.8229,0.0471,23.97,-19.21,-9.79,
19017,1661617065197,-0.8704,-0.757,-0.0501,24.57,-16.51,-9.15,
19018,1661617065197,-1.0588,-0.7423,0.1272,18.66,-14.39,-6.06,
19019,1661617065197,-1.0598,-0.7902,0.259,14.88,-16.84,-6.77,
19020,1661617065197,-1.0662,-0.7287,0.1008,15.67,-6.01,-10.79,
19021,1661617065197,-1.0588,-0.6637,0.2825,10.36,-10.49,-10.69,
19022,1661617065197,-1.0168,-0.5582,-0.0491,5.37,-9.9,-6.51,
19023,1661617065197,-1.032,-0.8771,0.0749,10.36,-6.94,-2.85,
19024,1661617065197,-1.008,-0.6852,0.009,4.48,-10.66,-5.32,
19025,1661617065197,-0.9993,-0.3996,-0.0276,2.67,-15.15,-4.13,
19026,1661617065197,-1.0676,-0.5202,0.0691,1.37,-18.61,-2.94,
19027,1661617065197,-0.9436,-0.5612,0.1042,-0.43,-10.07,-4.59,
19028,1661617065204,-1.03,-0.6471,0.2214,-8.62,-7.79,-6.59,
19029,1661617065204,-1.0891,-0.5543,0.3552,-9.9,-12.43,-8.79,
19030,1661617065204,-1.1516,-0.5597,0.468,-3.53,-3.22,-4.13,
19031,1661617065204,-1.1023,-0.6769,0.529,-3.83,2.54,-5.51,
19032,1661617065204,-1.0925,-0.5338,0.5207,-14.33,4.47,-0.3,
19033,1661617065204,-1.199,-0.6041,0.6575,-16.74,2.37,2.8,
19034,1661617065204,-1.114,-0.3908,0.3743,-19.01,-2.45,-1.68,
19035,1661617065204,-1.1111,-0.297,0.4289,-15.92,-1.28,0.98,
19036,1661617065204,-1.2859,-0.3805,0.5984,-13.72,2.7,5.34,
19037,1661617065204,-1.1619,-0.2472,0.5408,-16.22,-1.78,6.08,
19038,1661617065204,-1.136,0.0472,0.3757,-16.11,1.77,9.36,
19039,1661617065204,-1.0588,0.3319,0.6619,-15.61,5.57,3.16,
19040,1661617065204,-1.1511,0.1976,0.3484,-9.83,-4.83,7.27,
19041,1661617065204,-1.1316,0.0677,0.4153,-9.32,6.5,7.36,
19042,1661617065204,-0.9607,0.5423,0.5217,-6.03,8.03,4.53,
19043,1661617065204,-1.0691,0.7059,0.2756,-2.53,5.15,6.35,
19044,1661617065204,-1.0608,0.7445,0.301,0.99,8.53,9.08,
19045,1661617065204,-1.029,0.8382,0.3762,1.78,12.76,4.17,
19046,1661617065204,-1.051,0.8334,0.2175,4.09,10.56,6.72,
19047,1661617065204,-1.0754,0.8558,0.1106,6.07,4.98,1.6,
19048,1661617065204,-1.0061,1.037,0.3562,11.37,15.55,0.7,
19049,1661617065204,-0.967,0.9979,0.1926,17.06,13.69,3.07,
19050,1661617065204,-0.9304,0.9984,-0.1194,21.16,17.84,-3.67,
19051,1661617065204,-0.9338,0.9115,0.3288,26.14,28.25,-4.32,
19052,1661617065204,-0.9329,0.6966,0.0842,24.86,15.81,-1.4,
19053,1661617065204,-0.9734,0.8983,-0.0559,25.68,5.91,-2.59,
19054,1661617065204,-1.0461,0.8602,0.0505,26.47,10.14,-3.13,
19055,1661617065204,-1.0286,0.6,0.1702,27.97,14.38,-2.04,
19056,1661617065204,-0.9031,0.6346,-0.073,27.75,14.62,-0.67,
19057,1661617065204,-0.9333,0.5057,-0.0969,28.36,8.37,-2.23,
19058,1661617065204,-0.9119,0.5555,0.0686,34.85,7.01,-7.96,
19059,1661617065204,-0.8948,0.5262,0.0461,36.65,2.44,-0.49,
19060,1661617065204,-0.9602,0.3631,-0.3411,36.36,-8.21,-4.5,
19061,1661617065204,-0.6755,0.4261,-0.2664,34.96,-1.28,-1.13,
19062,1661617065204,-1.029,0.3968,0.1716,39.93,11.66,-3.95,
19063,1661617065204,-0.8557,0.2831,-0.5667,42.65,-6.34,-3.58,
19064,1661617065204,-0.822,0.2513,-0.2796,40.24,-11.93,-5.32,
19065,1661617065204,-0.9246,0.3387,0.1833,37.75,-6.44,-4.77,
19066,1661617065221,-0.8909,0.2337,-0.2205,39.85,-11.59,-5.14,
19067,1661617065221,-0.7141,0.0423,-0.5252,38.45,6.6,-10.88,
19068,1661617065221,-0.844,0.1747,0.1174,33.75,-0.42,-12.98,
19069,1661617065221,-0.8079,-0.0558,-0.3445,35.95,-12.62,-14.52,
19070,1661617065221,-0.8704,-0.3698,-0.1443,37.46,-7.79,-12.98,
19071,1661617065221,-0.9006,-0.1662,0.1077,30.87,-4.67,-12.43,
19072,1661617065221,-0.8904,-0.483,-0.2405,26.76,-11.85,-19.36,
19073,1661617065221,-0.9856,-0.6076,0.0486,29.95,-7.44,-12.62,
19074,1661617065221,-0.946,-0.7868,0.1204,24.26,-7.37,-12.25,
19075,1661617065221,-1.0242,-0.9494,-0.1384,16.36,-18.28,-12.25,
19076,1661617065221,-1.0598,-0.8576,0.3415,13.67,-11.68,-7.96,
19077,1661617065221,-1.071,-1.0377,0.2068,12.36,-12.86,-6.42,
19078,1661617065221,-0.9768,-0.9845,-0.0735,5.06,-10.92,-4.5,
19079,1661617065221,-0.9573,-1.0031,0.0994,1.07,-6.77,-3.86,
19080,1661617065228,-1.0842,-1.1105,0.2873,1.68,-15.82,-2.67,
19081,1661617065228,-0.9485,-0.8864,0.0447,-0.23,-20.05,-3.31,
19082,1661617065228,-1.1291,-0.9171,0.1028,-3.62,-15.06,-0.49,
19083,1661617065228,-0.968,-0.7921,0.2078,-4.32,-6.44,-0.3,
19084,1661617065229,-1.1008,-0.5768,0.3684,-6.82,3.47,0.89,
19085,1661617065229,-1.029,-0.6207,0.1247,-7.72,-5.25,0.34,
19086,1661617065229,-1.0579,-0.6637,0.0574,-12.82,-11.17,1.88,
19087,1661617065230,-1.0798,-0.5451,0.7585,-12.53,-6.94,2.89,
19088,1661617065230,-1.1663,-0.3058,0.4119,-9.72,-6.27,2.25,
19089,1661617065231,-1.1321,-0.3141,0.366,-9.13,3.54,3.07,
19090,1661617065231,-1.1868,-0.1891,0.6365,-13.02,5.66,2.15,
19091,1661617065231,-1.1091,0.0658,0.5242,-18.42,3.88,6.35,
19092,1661617065231,-1.1658,0.0477,0.4914,-15.12,5.5,7.54,
19093,1661617065231,-1.157,0.0648,0.4431,-10.8,5.91,7.63,
19094,1661617065231,-1.03,0.1786,0.3147,-11.13,7.1,3.25,
19095,1661617065231,-1.0705,0.2245,0.3909,-11.52,14.38,3.62,
19096,1661617065231,-1.116,0.2958,0.262,-13.23,8.53,0.7,
19097,1661617065231,-1.0691,0.246,0.1955,-10.12,9.63,3.16,
19098,1661617065231,-1.1267,0.3719,0.3752,-8.03,2.78,-1.58,
19099,1661617065231,-1.1575,0.4642,0.3752,-5.71,2.37,0.61,
19100,1661617065231,-1.0945,0.2616,0.3245,-1.24,0.75,6.26,
19101,1661617065231,-1.094,0.3822,0.2146,1.46,0.42,4.44,
19102,1661617065231,-1.0559,0.6629,0.4172,1.57,16.74,9.63,
19103,1661617065231,-1.2263,0.598,0.5432,5.28,24.77,14.19,
19104,1661617065231,-0.8064,0.703,0.3142,6.99,35.34,9.17,
19105,1661617065231,-1.1438,0.7333,0.2234,12.16,35.34,7.63,
19106,1661617065231,-1.0271,0.6864,0.2414,14.07,29.09,7.82,
19107,1661617065231,-0.7727,0.7728,0.1018,13.96,9.3,1.42,
19108,1661617065231,-0.9216,0.9017,0.2556,15.96,2.78,2.89,
19109,1661617065231,-0.9226,1.0194,0.093,20.77,-11.52,0.98,
19110,1661617065231,-0.842,0.9418,-0.3538,29.55,3.04,4.35,
19111,1661617065231,-0.967,0.8705,0.2956,25.76,18.44,5.43,
19112,1661617065231,-0.8747,1.1463,-0.2473,25.68,16.91,-2.5,
19113,1661617065231,-0.8591,0.8763,-0.137,27.46,17.67,0.06,
19114,1661617065231,-0.9455,0.8724,0.1155,31.28,6.0,-8.24,
19115,1661617065231,-0.9241,0.9237,0.0788,33.35,-3.48,-4.04,
19116,1661617065231,-0.9001,0.6849,-0.1702,37.66,-2.21,-3.31,
19117,1661617065231,-0.907,0.7025,-0.053,42.85,6.6,-7.05,
19118,1661617065231,-0.8733,0.3744,-0.1702,41.96,12.0,-5.96,
19119,1661617065231,-0.9065,0.2079,-0.2517,39.27,6.08,-9.24,
19120,1661617065231,-0.8747,0.3197,-0.1663,40.07,-1.45,-9.61,
19121,1661617065231,-0.8044,0.0209,-0.1521,42.95,-12.52,-6.68,
19122,1661617065247,-1.0061,-0.0958,-0.2263,38.45,-9.99,-15.35,
19123,1661617065247,-0.8557,-0.0924,-0.178,36.07,0.08,-13.81,
19124,1661617065247,-0.8747,-0.5675,-0.1326,37.26,-2.38,-8.33,
19125,1661617065248,-0.7639,-0.2594,-0.0725,34.64,-9.66,-8.6,
19126,1661617065248,-0.9343,-0.38,-0.1428,34.38,-16.58,-9.34,
19127,1661617065248,-0.8904,-0.631,-0.1716,32.36,-5.34,-12.25,
19128,1661617065248,-1.0032,-0.611,0.0393,26.56,-3.38,-9.34,
19129,1661617065248,-0.9255,-0.5387,-0.0906,20.06,-14.39,-7.14,
19130,1661617065248,-0.9709,-0.5534,-0.0598,24.15,-18.19,-6.51,
19131,1661617065248,-1.0554,-0.8434,0.386,21.76,-0.94,-1.22,
19132,1661617065248,-1.0286,-0.6579,0.218,12.59,-11.93,-3.4,
19133,1661617065248,-0.9636,-0.3737,-0.012,11.18,-11.52,-2.5,
19134,1661617065248,-1.095,-0.737,0.3371,13.08,-10.66,-0.21,
19135,1661617065248,-0.9543,-0.6251,-0.0003,8.16,-2.88,-6.51,
19136,1661617065248,-0.9543,-0.5719,0.0359,5.87,2.87,-3.58,
19137,1661617065248,-1.0173,-0.6793,-0.0173,4.27,-1.87,-4.68,
19138,1661617065248,-0.9495,-0.8639,-0.1487,3.89,-6.18,-0.03,
19139,1661617065248,-1.0173,-0.7555,0.0413,0.46,-10.24,-6.59,
19140,1661617065248,-1.0662,-0.6066,0.1072,-7.13,-16.25,-3.49,
19141,1661617065248,-1.0808,-0.8683,0.114,-9.14,-11.85,-1.4,
19142,1661617065248,-1.1711,-0.9415,0.3064,-9.63,-8.21,1.79,
19143,1661617065256,-1.029,-0.6378,0.5427,-12.21,-3.98,0.61,
19144,1661617065256,-1.2405,-0.8219,0.6985,-13.02,-6.86,5.43,
19145,1661617065256,-1.0896,-0.5519,0.5852,-13.63,-5.08,6.81,
19146,1661617065256,-1.2053,-0.483,0.6335,-15.52,6.17,9.81,
19147,1661617065256,-1.2048,-0.5114,0.6233,-16.02,12.68,11.0,
19148,1661617065256,-1.176,-0.3229,0.4661,-14.73,4.81,9.45,
19149,1661617065256,-1.1023,-0.1203,0.4045,-16.71,3.88,13.83,
19150,1661617065256,-1.0564,0.2508,0.1746,-15.52,-7.53,12.1,
19151,1661617065256,-1.1799,0.1073,0.3752,-11.72,3.21,16.21,
19152,1661617065260,-1.115,0.2064,0.2541,-9.43,1.85,12.38,
19153,1661617065260,-0.9621,0.7049,0.2507,-11.13,3.88,9.81,
19154,1661617065260,-1.0642,0.6678,0.4343,-11.43,5.74,5.53,
19155,1661617065260,-1.1536,0.6,0.5696,-7.02,9.3,9.17,
19156,1661617065260,-1.011,0.7059,0.4841,-2.03,8.46,9.91,
19157,1661617065260,-1.0139,0.9144,0.448,3.07,10.32,2.8,
19158,1661617065260,-1.0779,0.9686,0.5193,4.47,15.64,3.25,
19159,1661617065260,-1.1438,0.8187,0.3918,6.79,18.51,0.34,
19160,1661617065260,-0.9871,0.8021,0.1453,6.87,20.47,-4.86,
19161,1661617065260,-0.9871,0.9173,0.1213,7.77,22.49,-1.31,
19162,1661617065260,-1.0071,0.808,0.1228,14.66,22.83,-1.58,
19163,1661617065260,-0.9646,0.7059,-0.1023,18.77,18.1,-0.3,
19164,1661617065260,-0.8288,0.7826,-0.0769,18.57,9.39,0.16,
19165,1661617065260,-1.0476,0.5829,0.0657,19.06,-1.02,-0.12,
19166,1661617065260,-1.031,0.4955,0.1663,20.58,-2.8,-0.58,
19167,1661617065260,-1.0593,0.5121,0.2825,23.56,5.24,0.34,
19168,1661617065260,-1.094,0.7245,0.2727,23.47,10.23,-0.85,
19169,1661617065260,-0.8957,0.8451,0.2595,27.28,17.08,-0.85,
19170,1661617065260,-1.0203,0.4408,0.1404,31.74,14.62,0.34,
19171,1661617065260,-0.7776,0.5853,-0.1716,32.18,9.89,-4.68,
19172,1661617065260,-0.8635,0.724,-0.0242,32.85,10.49,-3.03,
19173,1661617065260,-0.9797,0.7933,-0.0232,38.77,-3.05,-5.6,
19174,1661617065260,-0.8118,0.557,-0.7214,41.06,-6.6,-0.3,
19175,1661617065260,-0.8977,0.4169,-0.135,38.66,9.13,-2.59,
19176,1661617065260,-0.8303,0.6141,-0.4734,38.07,-5.6,-6.24,
19177,1661617065260,-0.6501,0.3319,-0.4187,41.96,-9.23,-4.5,
19178,1661617065260,-0.8816,0.3568,0.1052,44.36,-11.33,-6.51,
19179,1661617065260,-0.9089,0.4286,-0.0169,40.46,-7.44,-5.14,
19180,1661617065260,-0.7468,0.0736,-0.3987,37.35,-0.77,-7.5,
19181,1661617065260,-0.8664,-0.1476,0.1853,39.37,16.24,-9.61,
19182,1661617065260,-0.8752,-0.1969,-0.1633,40.65,-1.28,-11.7,
19183,1661617065260,-0.8391,-0.547,-0.3997,33.95,-3.55,-9.98,
19184,1661617065260,-0.9128,-0.5607,0.1697,29.86,-7.37,-13.53,
19185,1661617065260,-0.9451,-0.8795,-0.1736,28.26,-10.75,-8.79,
19186,1661617065260,-1.0129,-0.8141,-0.3582,21.27,-17.44,-9.88,
19187,1661617065276,-1.0061,-0.8961,0.3142,17.07,-9.82,-7.6,
19188,1661617065276,-1.0193,-1.1788,0.0544,14.78,-21.5,-9.88,
19189,1661617065276,-0.9143,-0.9196,0.0022,9.96,-15.48,-2.32,
19190,1661617065276,-1.0281,-0.8703,0.1965,11.17,-10.16,-3.95,
19191,1661617065276,-0.9431,-0.903,0.2312,4.97,-2.71,1.7,
19192,1661617065276,-1.0432,-0.735,0.2043,4.09,-0.26,-3.77,
19193,1661617065276,-0.9983,-0.8434,-0.0896,3.28,-6.51,1.07,
19194,1661617065276,-0.9246,-0.8517,-0.0564,1.25,-9.73,-1.77,
19195,1661617065276,-1.0852,-0.6818,0.3445,-1.53,-6.1,-0.39,
19196,1661617065276,-1.0823,-0.5075,0.071,-0.63,-19.38,-2.59,
19197,1661617065276,-0.9729,-0.4577,-0.116,-5.33,-11.43,4.63,
19198,1661617065276,-1.073,-0.5504,0.4592,-7.63,-8.63,4.53,
19199,1661617065276,-1.0832,-0.5573,0.2615,-9.0,-5.6,5.16,
19200,1661617065276,-1.157,-0.3742,0.7117,-9.43,3.97,2.06,
19201,1661617065276,-1.092,-0.1925,0.5022,-10.73,-1.61,0.43,
19202,1661617065276,-1.1155,-0.3947,0.3826,-12.82,2.87,3.07,
19203,1661617065276,-1.1335,-0.4191,0.6306,-10.33,10.9,2.15,
19204,1661617065276,-1.1579,-0.1876,0.5662,-14.53,9.72,3.07,
19205,1661617065276,-1.1492,-0.1813,0.2014,-12.42,8.29,4.9,
19206,1661617065276,-1.2888,-0.0197,0.4993,-17.3,4.81,4.17,
19207,1661617065276,-1.157,-0.0412,0.4285,-17.52,2.11,7.17,
19208,1661617065276,-1.177,-0.0324,0.3269,-15.82,1.25,6.53,
19209,1661617065276,-1.136,0.1732,0.2561,-15.52,-2.88,9.81,
19210,1661617065276,-1.0886,0.2245,0.5041,-9.11,2.11,12.19,
19211,1661617065276,-1.2366,0.2567,0.7771,-9.71,8.79,10.64,
19212,1661617065276,-1.1013,0.4515,0.2219,-7.43,1.61,9.54,
19213,1661617065276,-1.0935,0.4466,0.3406,-7.13,20.37,13.28,
19214,1661617065276,-1.1091,0.7528,0.7141,0.38,18.94,11.92,
19215,1661617065290,-0.949,0.9286,0.2283,5.77,28.42,12.74,
19216,1661617065290,-0.9036,0.6605,0.3396,6.79,23.76,9.45,
19217,1661617065290,-1.1106,0.9295,0.0954,6.27,17.84,5.25,
19218,1661617065290,-0.8684,0.9711,0.0774,7.87,8.62,6.26,
19219,1661617065290,-0.9509,0.9662,-0.0632,9.96,2.02,3.62,
19220,1661617065290,-0.8513,1.2733,-0.0007,18.16,3.12,1.6,
19221,1661617065290,-0.9553,0.9237,-0.0632,24.37,8.53,4.63,
19222,1661617065290,-0.9348,0.9432,-0.0735,26.76,20.13,1.51,
19223,1661617065290,-0.8757,1.1249,0.1262,28.56,25.03,0.34,
19224,1661617065290,-0.8996,0.8558,0.0222,26.06,18.44,-0.49,
19225,1661617065290,-0.9709,0.9325,0.0686,26.47,12.09,-2.76,
19226,1661617065290,-0.9709,0.7879,0.2429,30.46,10.82,-2.59,
19227,1661617065290,-0.8948,0.6566,0.1135,32.85,4.64,-1.31,
19228,1661617065290,-0.8528,0.6927,-0.2654,34.76,12.52,-5.78,
19229,1661617065290,-0.8279,0.5091,-0.1043,36.85,10.65,-3.4,
19230,1661617065290,-1.0163,0.368,-0.2532,36.45,-0.59,-5.05,
19231,1661617065290,-0.8181,0.1879,-0.3157,39.15,-2.29,-1.68,
19232,1661617065290,-0.9914,0.0585,-0.1775,39.66,-5.41,-3.13,
19233,1661617065290,-0.7297,0.3343,-0.0403,40.25,-2.21,-5.6,
19234,1661617065290,-0.8948,0.1879,-0.2268,37.26,-17.09,-2.76,
19235,1661617065290,-0.8884,-0.2008,-0.3054,33.86,-8.3,-2.32,
19236,1661617065290,-0.8039,-0.0578,0.0686,39.37,4.98,-8.15,
19237,1661617065290,-0.8533,-0.1554,-0.1292,39.35,3.47,-4.77,
19238,1661617065290,-0.7576,-0.1945,-0.3914,34.25,-11.26,-7.96,
19239,1661617065290,-0.886,-0.3732,0.1106,31.55,-0.18,-8.15,
19240,1661617065290,-0.8259,-0.3234,-0.4412,32.18,-9.82,-6.33,
19241,1661617065290,-0.7869,-0.4455,-0.2698,30.85,-7.87,-6.77,
19242,1661617065290,-1.0163,-0.5568,0.1223,28.76,-16.16,-7.14,
19243,1661617065290,-0.9636,-0.5133,-0.0066,23.76,-18.7,-11.15,
19244,1661617065290,-0.9324,-0.4747,0.0002,18.86,-9.99,-5.23,
19245,1661617065290,-1.031,-0.7033,0.3069,17.96,-0.59,-4.13,
19246,1661617065290,-0.9309,-0.7389,0.0159,15.67,-5.17,-2.13,
19247,1661617065290,-0.9778,-0.7868,0.1101,9.49,0.25,-5.41,
19248,1661617065290,-1.0417,-0.7584,0.3635,8.16,-5.0,-4.68,
19249,1661617065290,-1.0349,-1.0646,-0.1165,7.67,-8.13,-5.41,
19250,1661617065290,-1.0105,-1.0934,-0.1824,5.98,-11.26,-1.03,
19251,1661617065290,-0.988,-0.796,0.1931,-2.53,-6.94,4.81,
19252,1661617065290,-1.1453,-1.0031,0.2458,-6.53,-11.17,5.53,
19253,1661617065306,-1.0969,-0.9455,-0.0994,-7.83,-14.89,8.09,
19254,1661617065306,-1.0373,-0.7643,0.4748,-12.71,-8.37,9.81,
19255,1661617065306,-1.155,-0.7257,0.5222,-11.0,-12.36,10.18,
19256,1661617065306,-1.1467,-0.6085,0.2517,-10.21,-12.95,6.81,
19257,1661617065306,-1.1282,-0.5744,0.656,-14.33,2.44,10.0,
19258,1661617065306,-1.1487,-0.4284,0.5002,-15.43,5.74,9.91,
19259,1661617065306,-1.2493,-0.3961,0.3484,-13.22,7.43,14.47,
19260,1661617065306,-1.1428,-0.2526,0.4817,-15.82,-3.05,12.19,
19261,1661617065306,-1.1243,0.1483,0.3245,-14.53,4.64,14.56,
19262,1661617065306,-1.157,0.0795,0.3152,-12.73,7.1,14.47,
19263,1661617065306,-1.2346,0.1683,0.3762,-13.23,9.04,14.01,
19264,1661617065306,-1.1116,0.3705,0.4455,-16.02,3.21,12.38,
19265,1661617065306,-1.116,0.4994,0.3718,-15.7,-0.85,4.9,
19266,1661617065306,-1.1003,0.6439,0.3938,-10.22,3.38,5.34,
19267,1661617065306,-1.1282,0.5106,0.4646,-4.33,9.04,2.06,
19268,1661617065306,-1.0637,0.6503,0.3342,-1.44,14.38,4.81,
19269,1661617065306,-1.1575,0.6966,0.386,-2.23,17.25,-2.94,
19270,1661617065306,-1.1653,0.6039,0.4109,-0.54,17.08,-2.04,
19271,1661617065306,-1.0539,0.641,0.2624,1.28,14.79,-1.68,
19272,1661617065306,-1.0242,0.742,0.2263,3.89,11.25,-3.58,
19273,1661617065306,-1.136,0.6625,0.1902,6.16,6.93,2.98,
19274,1661617065306,-1.0969,0.6185,0.1091,5.25,5.66,1.79,
19275,1661617065306,-0.9045,0.6327,0.1223,9.06,10.39,4.72,
19276,1661617065306,-0.8235,0.8451,0.1692,15.87,11.07,4.08,
19277,1661617065306,-1.0452,0.7391,0.1765,17.18,14.12,3.44,
19278,1661617065306,-1.071,0.5677,0.113,20.95,19.87,2.7,
19279,1661617065306,-0.8874,0.7977,0.0051,22.06,12.76,1.07,
19280,1661617065306,-1.0095,0.9696,0.28,22.26,14.79,2.7,
19281,1661617065306,-0.9553,0.8124,-0.1106,26.47,5.83,-5.51,
19282,1661617065306,-0.8913,0.6581,-0.2551,30.26,7.18,0.98,
19283,1661617065306,-0.8835,0.6883,0.1614,30.26,18.18,-4.59,
19284,1661617065306,-0.9055,0.992,-0.0388,29.26,6.08,-1.95,
19285,1661617065306,-0.6531,0.8695,-0.4607,34.07,10.14,-6.42,
19286,1661617065306,-0.863,0.6869,-0.1028,39.15,8.29,-8.15,
19287,1661617065306,-0.759,0.7538,-0.2844,38.45,-0.68,-9.06,
19288,1661617065322,-0.8801,0.5052,-0.1892,43.55,-6.27,-8.97,
19289,1661617065322,-0.8777,0.5121,-0.0574,46.57,-0.26,-10.34,
19290,1661617065322,-0.8601,0.5008,-0.2019,43.96,0.42,-10.88,
19291,1661617065322,-0.8264,0.0716,-0.1253,40.36,3.64,-10.97,
19292,1661617065322,-0.7707,0.0702,-0.0188,38.76,-0.94,-12.8,
19293,1661617065322,-0.7424,-0.2638,-0.2957,39.55,-3.64,-11.52,
19294,1661617065322,-0.9382,-0.3742,-0.2752,36.47,-3.98,-11.7,
19295,1661617065322,-0.8816,-0.4957,0.008,34.25,-2.38,-10.43,
19296,1661617065322,-0.8913,-0.8873,-0.2341,30.65,-14.22,-6.42,
19297,1661617065322,-0.7893,-0.4977,-0.2254,25.88,-13.29,-5.78,
19298,1661617065322,-1.0515,-0.7736,-0.0427,21.48,-16.51,-6.33,
19299,1661617065322,-0.9138,-0.9684,-0.0398,23.05,-16.58,-4.68,
19300,1661617065322,-1.0378,-0.8004,0.1311,22.76,-8.3,-3.03,
19301,1661617065322,-1.0017,-0.7799,0.0051,16.37,-13.79,-0.85,
19302,1661617065322,-0.9158,-0.8038,0.0046,12.27,-15.22,-4.5,
19303,1661617065322,-1.0471,-0.7882,0.281,11.67,0.75,1.88,
19304,1661617065322,-0.9656,-0.6339,0.0691,8.77,-3.55,-0.3,
19305,1661617065322,-0.9939,-0.633,-0.0828,7.57,-7.27,-0.3,
19306,1661617065322,-1.0588,-0.817,0.0569,8.48,-14.64,3.53,
19307,1661617065322,-0.9553,-0.4987,-0.0437,5.89,-13.12,-0.49,
19308,1661617065322,-1.1057,-0.5172,0.218,4.87,-7.27,1.16,
19309,1661617065322,-1.0788,-0.5597,0.2034,-1.02,-8.37,-0.03,
19310,1661617065322,-0.9675,-0.5626,0.071,-8.42,-6.6,2.25,
19311,1661617065322,-1.032,-0.546,0.3147,-8.64,-5.5,1.88,
19312,1661617065322,-1.1413,-0.4406,0.4123,-5.92,-5.67,-0.67,
19313,1661617065322,-1.1277,-0.6696,0.4553,-4.03,1.01,1.79,
19314,1661617065322,-1.134,-0.6911,0.4543,-11.22,-0.85,3.89,
19315,1661617065322,-1.1169,-0.4489,0.5349,-20.72,3.12,4.08,
19316,1661617065322,-1.2043,-0.4694,0.5613,-21.81,2.19,6.17,
19317,1661617065322,-1.1394,-0.3317,0.2961,-17.32,1.77,9.01,
19318,1661617065322,-1.0774,-0.2521,0.4167,-17.21,-3.31,8.27,
19319,1661617065322,-1.322,-0.2477,0.5906,-15.52,3.97,9.45,
19320,1661617065337,-1.0163,0.0746,0.2844,-15.52,-0.09,10.64,
19321,1661617065337,-1.2146,0.2015,0.3308,-17.34,6.17,14.65,
19322,1661617065337,-1.0901,0.4232,0.5852,-18.72,0.25,8.46,
19323,1661617065337,-1.1658,0.246,0.2024,-12.03,-7.53,13.55,
19324,1661617065337,-1.073,0.3885,0.3845,-5.43,1.68,13.64,
19325,1661617065337,-1.157,0.8421,0.2668,-2.93,6.08,11.46,
19326,1661617065337,-1.0452,0.8221,0.2742,-0.05,16.48,11.55,
19327,1661617065337,-1.0979,0.8172,0.3445,-1.73,12.85,8.46,
19328,1661617065337,-1.0222,0.9842,0.4177,1.25,20.71,4.81,
19329,1661617065337,-0.9978,0.8812,0.1448,5.06,19.61,4.44,
19330,1661617065337,-1.0496,0.9779,0.0969,9.96,27.56,0.43,
19331,1661617065337,-0.8821,1.1586,0.386,11.06,22.4,0.52,
19332,1661617065337,-0.9055,1.0018,-0.0667,11.35,12.59,-0.3,
19333,1661617065337,-0.886,1.0868,0.0549,15.47,11.07,-0.58,
19334,1661617065337,-0.9578,0.8451,0.1789,24.37,14.38,3.53,
19335,1661617065337,-0.9084,0.7953,-0.0613,26.66,15.81,-2.76,
19336,1661617065337,-0.9451,0.8905,-0.1443,23.97,16.48,-2.23,
19337,1661617065337,-0.9778,0.6395,0.199,22.58,10.23,-0.39,
19338,1661617065337,-1.0466,0.5668,0.0505,23.36,2.11,-4.04,
19339,1661617065337,-0.8596,0.6551,0.0178,28.67,3.47,-4.77,
19340,1661617065337,-0.9289,0.5414,0.1247,32.06,1.44,1.6,
19341,1661617065337,-0.9114,0.5331,0.1096,30.97,11.75,1.51,
