srNo,timestamp,ax,ay,az,gx,gy,gz,temp
34832,1661619806855,-1.27,-0.2186,0.1637,-20.47,-3.94,4.22,
34833,1661619806855,-1.2432,-0.1634,0.5836,-24.15,4.94,2.48,
34834,1661619806855,-1.2329,0.1022,0.6818,-18.26,3.17,3.76,
34835,1661619806855,-1.2793,0.0094,0.3283,-12.77,2.58,5.23,
34836,1661619806855,-1.1196,0.2868,0.0978,-14.07,-5.37,0.21,
34837,1661619806855,-1.1382,0.2243,0.3678,-12.07,4.87,2.67,
34838,1661619806855,-1.1294,0.0475,0.2858,-9.15,3.77,4.41,
34839,1661619806855,-1.1079,0.4157,0.0465,-11.96,0.47,1.31,
34840,1661619806855,-0.9502,0.5924,0.1364,-9.76,3.17,-0.25,
34841,1661619806855,-1.085,0.2463,0.3292,-4.76,3.0,2.39,
34842,1661619806855,-1.0064,0.5255,0.2267,3.21,7.74,5.4,
34843,1661619806855,-1.0816,0.4933,0.1242,4.82,4.18,2.94,
34844,1661619806855,-1.0532,0.6559,0.2404,6.12,7.74,6.77,
34845,1661619806855,-1.1416,0.5959,0.5221,9.13,10.62,5.4,
34846,1661619806855,-1.1504,0.401,0.3702,12.01,18.14,9.96,
34847,1661619806855,-1.0137,0.4963,-0.1039,13.81,15.78,6.59,
34848,1661619806855,-1.0059,0.5973,0.0978,16.71,20.51,2.94,
34849,1661619806869,-1.1001,0.339,0.153,17.41,10.1,5.23,
34850,1661619806869,-0.9605,0.6715,-0.1693,19.81,0.47,1.57,
34851,1661619806869,-0.832,0.6305,-0.1044,23.61,-5.45,8.97,
34852,1661619806869,-1.0156,0.5451,0.1075,23.59,-7.83,4.59,
34853,1661619806869,-0.9683,0.4421,0.1237,25.93,-3.08,7.59,
34854,1661619806869,-0.9048,0.4601,0.006,27.7,5.03,4.13,
34855,1661619806869,-0.731,0.7194,-0.0926,31.42,5.87,5.23,
34856,1661619806869,-0.6914,0.6452,0.1774,34.81,18.48,7.04,
34857,1661619806869,-0.8291,0.3908,0.0992,32.31,3.25,3.95,
34858,1661619806869,-0.6426,0.7253,-0.411,31.41,-8.59,3.76,
34859,1661619806869,-0.8648,0.6115,0.358,33.51,-3.42,4.13,
34860,1661619806869,-0.836,0.613,0.0372,39.71,-15.69,1.22,
34861,1661619806869,-0.6875,0.3376,-0.7089,41.11,2.91,2.12,
34862,1661619806869,-0.7905,0.5548,0.3409,38.61,10.86,-3.62,
34863,1661619806869,-0.7554,0.7267,-0.4813,35.71,-12.73,-8.18,
34864,1661619806869,-0.7407,0.0539,-0.1083,38.39,-8.84,-3.35,
34865,1661619806869,-0.874,0.4811,0.3683,38.9,-0.21,-5.91,
34866,1661619806869,-0.8096,0.5285,-0.0243,40.59,-7.07,-8.92,
34867,1661619806869,-0.8301,-0.0692,-0.3309,39.11,4.7,-9.47,
34868,1661619806869,-0.9097,0.0871,0.4679,32.61,14.25,-10.82,
34869,1661619806869,-0.9199,-0.348,-0.2323,30.11,-1.91,-5.82,
34870,1661619806869,-0.8374,-0.1663,-0.3949,26.02,-11.55,-8.92,
34871,1661619806869,-0.8926,-0.2635,0.2159,22.02,-5.97,-4.81,
34872,1661619806869,-0.9439,-0.5853,-0.35,16.7,-13.92,-6.18,
34873,1661619806869,-0.9976,-0.2757,-0.204,15.11,-23.47,-2.26,
34874,1661619806869,-0.9912,-0.6532,0.337,13.11,-24.49,-1.9,
34875,1661619806869,-1.0737,-0.389,0.0084,9.1,-20.94,-9.56,
34876,1661619806869,-0.9195,-0.3221,-0.038,1.21,-11.2,-6.37,
34877,1661619806869,-0.96,-0.639,0.2003,-1.07,-10.03,-8.64,
34878,1661619806869,-0.9131,-0.3582,0.3878,1.12,-8.76,-4.08,
34879,1661619806869,-1.1616,-0.5799,0.1666,0.41,-9.86,-4.26,
34880,1661619806869,-0.9951,-0.409,0.0534,-4.97,-10.27,-8.46,
34881,1661619806869,-1.2129,-0.3451,0.4508,-6.68,-1.98,-2.52,
34882,1661619806883,-1.1636,-0.3094,0.0182,-5.48,-8.33,-8.18,
34883,1661619806883,-1.0405,-0.1541,0.0958,-11.06,-5.8,-4.72,
34884,1661619806883,-1.0796,-0.2567,0.4874,-15.26,4.36,-8.46,
34885,1661619806883,-1.2056,-0.1942,0.2189,-15.88,-6.9,-8.55,
34886,1661619806883,-1.1465,-0.0247,0.2355,-12.46,8.76,-8.37,
34887,1661619806883,-1.2446,-0.1366,0.7452,-11.47,15.18,-10.46,
34888,1661619806883,-1.1846,-0.0667,0.1832,-14.49,11.89,-6.72,
34889,1661619806883,-1.2246,-0.2733,0.4205,-16.28,13.06,-2.8,
34890,1661619806883,-1.1602,-0.0565,0.3556,-15.18,7.4,-4.63,
34891,1661619806883,-1.166,-0.1961,0.0763,-14.3,7.83,-0.71,
34892,1661619806883,-1.2461,-0.1634,0.3639,-12.37,5.29,-1.99,
34893,1661619806883,-1.211,-0.0223,0.3107,-14.28,-2.49,0.3,
34894,1661619806883,-1.1279,-0.1043,0.1564,-14.66,-7.14,2.67,
34895,1661619806883,-1.2354,0.0651,0.2907,-12.88,-6.9,3.58,
34896,1661619806883,-1.0552,0.0636,0.3273,-5.57,-4.78,6.4,
34897,1661619806883,-1.1841,0.131,0.3273,-2.48,4.27,7.23,
34898,1661619806883,-1.0093,0.4601,0.1495,-1.39,-1.74,3.31,
34899,1661619806883,-1.1568,0.3117,0.194,1.31,7.14,5.95,
34900,1661619806883,-1.0899,0.4162,0.444,1.73,6.9,9.59,
34901,1661619806883,-1.0479,0.7047,-0.0941,2.84,-1.48,6.22,
34902,1661619806883,-1.105,0.6476,0.0636,5.42,12.31,8.6,
34903,1661619806883,-0.9824,0.7624,0.2907,10.9,3.43,11.06,
34904,1661619806883,-0.9854,0.7116,-0.1532,17.61,6.8,7.87,
34905,1661619806883,-0.9102,0.7819,0.0729,23.01,7.83,8.88,
34906,1661619806883,-1.0405,0.9699,0.1735,22.71,13.32,4.86,
34907,1661619806883,-0.8965,0.8527,0.1222,21.9,9.35,2.48,
34908,1661619806883,-0.8462,0.8429,-0.1039,23.23,10.86,-1.44,
34909,1661619806883,-0.7691,1.0915,0.2867,28.52,18.31,1.38,
34910,1661619806883,-0.8086,0.6247,-0.1346,39.0,14.17,4.22,
34911,1661619806883,-0.8037,0.5924,-0.3363,39.8,9.69,0.76,
34912,1661619806883,-0.8628,0.6051,0.0197,35.13,10.28,3.12,
34913,1661619806883,-0.8159,0.5631,-0.0301,34.4,3.0,-0.8,
34914,1661619806883,-0.7393,0.4972,-0.3475,35.8,-0.63,0.21,
34915,1661619806883,-0.77,0.1755,0.0407,36.7,2.41,0.67,
34916,1661619806883,-0.8516,0.2253,-0.0355,37.8,-9.17,4.77,
34917,1661619806898,-0.8081,0.3239,-0.3055,41.99,-17.47,8.05,
34918,1661619806898,-0.6231,-0.0081,-0.038,41.29,-21.18,5.4,
34919,1661619806898,-0.729,0.362,0.069,33.8,-20.17,5.31,
34920,1661619806898,-0.9097,0.0768,-0.0233,34.41,-7.07,0.85,
34921,1661619806898,-0.8521,0.0265,-0.1947,39.19,-0.29,7.78,
34922,1661619806898,-0.7139,0.2116,-0.12,36.01,7.32,3.95,
34923,1661619806898,-0.8394,0.0436,0.1154,32.52,-0.81,0.48,
34924,1661619806898,-0.7876,0.1691,-0.2259,28.11,-14.25,-4.54,
34925,1661619806898,-0.8369,-0.1512,-0.2294,32.12,-18.57,2.12,
34926,1661619806898,-0.8672,0.2316,0.2877,23.91,-9.34,-1.26,
34927,1661619806898,-0.8828,0.1213,-0.3275,17.61,-6.47,-0.71,
34928,1661619806898,-0.9038,-0.5282,0.0822,17.11,3.08,0.12,
34929,1661619806898,-1.0259,-0.2142,0.3239,19.81,-3.01,-6.0,
34930,1661619806898,-0.9824,0.1217,0.1534,17.52,-16.36,-5.09,
34931,1661619806898,-1.0396,-0.2865,0.0001,17.81,-17.64,-8.64,
34932,1661619806898,-1.0117,-0.3934,0.3834,13.41,7.4,-3.99,
34933,1661619806898,-0.9951,-0.6161,0.1329,6.0,7.66,-7.18,
34934,1661619806907,-0.9717,-0.2655,-0.0648,3.51,1.31,-8.82,
34935,1661619806907,-0.9561,-0.4559,0.1085,4.72,-4.27,-6.72,
34936,1661619806907,-1.0557,-0.9906,0.0265,1.12,-13.99,-10.46,
34937,1661619806907,-1.044,-0.4129,-0.162,-6.06,-18.57,-4.81,
34938,1661619806907,-1.084,-0.6668,0.2189,-5.48,-4.7,-2.35,
34939,1661619806907,-1.1748,-0.7425,0.0284,-14.68,-8.5,-0.8,
34940,1661619806907,-1.1275,-0.5609,0.1188,-20.37,-11.29,-4.54,
34941,1661619806907,-1.2666,-0.43,0.6373,-19.86,-9.17,-1.07,
34942,1661619806907,-1.1177,-0.2332,0.1554,-13.78,-9.26,-1.62,
34943,1661619806907,-1.2759,-0.3495,0.4909,-15.96,5.11,3.58,
34944,1661619806907,-1.2715,-0.0921,0.7091,-19.18,6.22,-4.35,
34945,1661619806907,-1.2832,-0.1571,0.2994,-18.69,-4.01,-2.08,
34946,1661619806907,-1.2334,-0.2664,0.297,-15.79,3.51,-7.82,
34947,1661619806907,-1.1665,0.3815,0.3532,-18.57,1.91,-2.26,
34948,1661619806907,-1.1089,-0.0579,0.1119,-16.29,4.01,-4.72,
34949,1661619806907,-1.21,0.1393,0.2247,-14.17,-2.32,-1.07,
34950,1661619806907,-1.1362,0.3195,0.4127,-10.66,0.64,-0.61,
34951,1661619806907,-1.2158,0.1964,0.3839,-9.79,2.67,0.03,
34952,1661619806907,-1.1797,0.3966,0.4044,-8.76,10.45,2.12,
34953,1661619806907,-1.0967,0.2336,0.3527,-7.99,7.06,-1.99,
34954,1661619806907,-1.0083,0.3727,0.2208,-6.88,7.06,4.31,
34955,1661619806907,-1.0664,0.5075,0.2701,-0.9,4.94,3.86,
34956,1661619806907,-1.1392,0.2038,0.2242,4.52,6.97,3.76,
34957,1661619806907,-1.1211,0.38,0.1085,7.83,8.42,4.59,
34958,1661619806907,-1.1133,0.5465,0.2086,9.3,11.55,4.41,
34959,1661619806907,-1.0796,0.3571,0.2047,10.12,12.22,8.24,
34960,1661619806907,-1.0669,0.4225,0.0153,10.13,5.29,9.59,
34961,1661619806907,-1.0537,0.425,0.2228,11.92,3.51,8.78,
34962,1661619806907,-0.96,0.5285,0.1652,13.02,-3.85,11.61,
34963,1661619806907,-0.9893,0.7438,0.1139,21.41,-8.5,10.97,
34964,1661619806907,-1.0571,0.5695,0.3756,21.3,4.44,14.52,
34965,1661619806907,-0.9888,0.5773,0.0407,23.82,1.22,10.14,
34966,1661619806907,-0.8159,0.7482,0.0646,24.71,15.78,8.78,
34967,1661619806907,-0.7569,0.9196,0.3214,29.5,25.16,5.58,
34968,1661619806907,-0.7661,0.8869,-0.2523,34.61,5.97,9.41,
34969,1661619806907,-0.7046,0.3566,-0.4027,36.29,13.06,8.05,
34970,1661619806907,-0.8028,1.0002,0.4093,33.71,-2.24,4.59,
34971,1661619806923,-0.689,1.0309,-0.6122,35.52,-15.78,2.02,
34972,1661619806923,-0.8032,0.2609,-0.1151,38.21,-3.42,3.31,
34973,1661619806923,-0.8052,0.444,0.1979,39.2,12.82,2.12,
34974,1661619806923,-0.6958,0.8576,0.0553,41.11,5.97,-3.71,
34975,1661619806923,-0.7173,0.5832,-0.2943,42.7,0.98,0.85,
34976,1661619806923,-0.771,0.2922,0.1764,43.0,5.54,-2.35,
34977,1661619806923,-0.8159,-0.0453,-0.0443,40.12,-3.68,-2.8,
34978,1661619806923,-0.7857,0.256,-0.3329,41.9,-5.45,-5.27,
34979,1661619806923,-0.8091,0.2116,-0.1024,41.51,2.33,-6.0,
34980,1661619806923,-0.8936,-0.5033,-0.0516,35.4,1.98,-5.73,
34981,1661619806923,-0.8257,0.0177,-0.4418,29.89,-13.83,-7.54,
34982,1661619806923,-0.792,-0.3621,-0.1722,26.51,-12.47,-5.36,
34983,1661619806923,-0.8364,-0.4139,-0.0912,27.33,-19.15,-11.1,
34984,1661619806923,-0.898,-0.286,-0.0702,16.6,-14.76,-6.0,
34985,1661619806923,-0.9536,-0.3392,0.0592,14.62,-14.16,-8.73,
34986,1661619806923,-0.8599,-0.2723,-0.0262,15.09,-19.67,-5.09,
34987,1661619806923,-1.0,-0.5282,0.1281,14.12,-13.23,-7.82,
34988,1661619806923,-0.9116,-0.1942,-0.0541,8.43,-15.61,-2.52,
34989,1661619806923,-0.938,-0.3529,0.0407,10.7,-4.52,-7.18,
34990,1661619806923,-1.0318,-0.4749,0.2579,3.33,-9.26,-3.44,
34991,1661619806923,-0.9453,-0.16,-0.1268,0.02,-11.89,-9.47,
34992,1661619806923,-1.0244,-0.6781,0.1481,-0.99,-7.14,-2.17,
34993,1661619806923,-1.0987,-0.2723,0.3151,-1.98,-11.72,-10.29,
34994,1661619806923,-1.0659,-0.2293,0.1364,-4.29,-5.28,-4.08,
34995,1661619806923,-1.0904,-0.3333,0.1705,-7.09,-2.08,-6.63,
34996,1661619806923,-1.0733,-0.2855,0.3922,-9.87,9.93,-1.07,
34997,1661619806923,-1.1206,-0.4046,0.4025,-10.68,10.1,-7.45,
34998,1661619806923,-1.1558,-0.1912,0.173,-11.49,2.58,-4.54,
34999,1661619806923,-1.1836,-0.3265,0.2008,-12.69,2.15,-6.54,
35000,1661619806923,-1.229,-0.4173,0.3366,-12.08,5.97,-3.16,
35001,1661619806923,-1.1851,-0.1136,0.1617,-14.87,4.18,-4.26,
35002,1661619806923,-1.209,-0.4583,0.2496,-19.07,-1.56,-2.35,
35003,1661619806923,-1.1529,-0.1156,0.2492,-19.85,-10.1,-7.63,
35004,1661619806923,-1.1909,-0.2435,0.3229,-14.97,-3.85,-2.61,
35005,1661619806939,-1.3247,-0.1654,0.5211,-17.07,0.47,0.67,
35006,1661619806939,-1.2227,0.049,0.4157,-16.07,-7.31,0.85,
35007,1661619806939,-1.1641,0.0133,0.4044,-13.88,1.91,2.85,
35008,1661619806939,-1.1734,0.2809,0.6608,-8.28,2.75,-3.16,
35009,1661619806939,-1.2144,0.0832,0.2067,-3.86,5.97,7.23,
35010,1661619806939,-1.042,0.2834,0.1661,-4.29,11.79,4.68,
35011,1661619806939,-1.0215,0.632,0.2579,-3.86,6.3,4.95,
35012,1661619806939,-1.1162,0.3537,0.2506,-3.87,-1.15,11.42,
35013,1661619806939,-1.1001,0.5465,-0.0311,-0.67,-15.35,6.86,
35014,1661619806939,-1.0093,0.8996,0.1852,6.33,5.71,9.87,
35015,1661619806939,-1.0801,0.6139,0.2672,15.43,4.01,12.61,
35016,1661619806939,-1.1367,0.6066,0.1539,15.81,17.55,10.05,
35017,1661619806939,-0.9663,0.8673,0.3815,14.71,30.15,7.04,
35018,1661619806939,-0.9053,0.8293,0.0973,14.7,22.46,3.86,
35019,1661619806939,-0.9219,0.8361,0.1852,18.31,15.27,1.12,
35020,1661619806939,-1.042,0.6466,0.2916,24.71,8.33,-2.71,
35021,1661619806939,-0.9126,0.714,-0.0878,30.32,5.11,-3.8,
35022,1661619806939,-0.9019,0.7751,-0.1561,35.11,11.72,1.48,
35023,1661619806939,-0.9112,0.2853,-0.0492,32.43,11.63,-0.43,
35024,1661619806939,-0.9204,0.5402,-0.3026,29.73,-0.38,-1.62,
35025,1661619806939,-0.8408,0.4025,-0.1024,33.5,-5.97,-0.16,
35026,1661619806939,-0.8452,0.2902,-0.0311,35.2,-14.42,-1.16,
35027,1661619806939,-0.7339,0.3752,0.1627,31.41,-3.77,2.48,
35028,1661619806939,-0.9136,0.2975,0.0558,34.81,-3.01,1.31,
35029,1661619806939,-0.6592,0.5671,-0.2806,39.11,-3.34,4.31,
35030,1661619806939,-0.7022,0.3205,0.3619,37.6,0.29,4.22,
35031,1661619806939,-0.9644,0.2814,0.5201,34.4,-0.12,0.67,
35032,1661619806939,-0.6734,0.3864,-0.7484,38.68,-23.3,-2.89,
35033,1661619806939,-0.7188,0.1496,-0.1864,38.79,2.84,-1.16,
35034,1661619806939,-0.7842,0.6349,0.3654,35.91,-3.08,-11.74,
35035,1661619806939,-0.707,0.0339,-0.9344,32.82,-16.36,-7.91,
35036,1661619806939,-0.7974,0.0617,-0.017,36.21,-11.89,-8.46,
35037,1661619806954,-0.8374,0.4513,0.3126,34.59,-5.97,-5.54,
35038,1661619806954,-0.8638,0.1901,-0.2035,31.92,-15.26,-5.45,
35039,1661619806954,-0.9971,-0.0277,-0.0228,25.1,2.15,-9.1,
35040,1661619806954,-0.9126,-0.1624,0.5104,24.8,2.07,-7.45,
35041,1661619806954,-0.8677,-0.1932,-0.1068,24.2,-2.84,-10.46,
35042,1661619806954,-0.897,-0.0355,0.1007,23.0,-2.58,-12.29,
35043,1661619806954,-0.9238,-0.7054,0.0826,17.4,-1.48,-7.91,
35044,1661619806954,-0.9824,-0.4701,-0.3402,12.12,-10.7,-5.36,
35045,1661619806954,-0.9331,-0.4637,0.088,8.52,-3.85,-6.37,
35046,1661619806954,-1.0044,-0.6834,-0.0795,4.0,-16.45,-7.18,
35047,1661619806954,-0.9771,-0.5868,-0.2782,-2.88,-21.7,-3.71,
35048,1661619806954,-0.9859,-0.8465,0.0392,-2.99,-18.4,-4.81,
35049,1661619806954,-1.0567,-0.6029,0.3336,-1.78,-14.85,-6.54,
35050,1661619806954,-1.0205,-0.4881,0.1071,-6.57,-11.03,-2.71,
35051,1661619806954,-1.2075,-0.6576,0.3995,-15.78,-5.04,-4.44,
35052,1661619806954,-1.0728,-0.3519,0.5089,-14.77,-8.67,-4.26,
35053,1661619806954,-1.2544,-0.3587,0.3785,-13.99,0.38,-7.27,
35054,1661619806954,-1.2002,-0.0643,0.1989,-12.57,-1.56,-10.82,
35055,1661619806954,-1.2022,-0.2982,0.4742,-14.48,12.56,-4.35,
35056,1661619806954,-1.2422,0.1164,0.3751,-15.07,-6.3,-3.9,
35057,1661619806954,-1.207,0.0299,0.1007,-12.07,-4.7,-3.25,
35058,1661619806954,-1.1597,-0.2054,0.2809,-15.65,-0.81,-1.16,
35059,1661619806954,-1.2207,0.0353,0.3956,-17.76,11.38,-5.36,
35060,1661619806954,-1.1333,0.216,0.3951,-14.57,9.35,-3.99,
35061,1661619806954,-1.2197,0.1066,0.36,-12.17,3.6,-7.18,
35062,1661619806954,-1.086,0.1349,0.38,-9.4,4.53,0.03,
35063,1661619806954,-1.1255,0.0861,0.3058,-13.78,3.17,-0.07,
35064,1661619806954,-1.062,0.2375,0.297,-9.29,8.25,-0.71,
35065,1661619806954,-1.1187,0.1847,0.1344,-7.26,10.79,0.3,
35066,1661619806968,-1.0611,0.0495,-0.0077,-4.29,7.74,5.49,
35067,1661619806968,-1.107,0.3439,0.1134,-0.7,1.81,3.49,
35068,1661619806968,-1.1509,0.1339,0.2072,5.62,1.98,6.31,
35069,1661619806968,-1.1978,0.1691,0.0241,4.72,-12.65,7.14,
35070,1661619806968,-1.0547,0.549,0.1744,4.92,-6.04,6.31,
35071,1661619806968,-1.2163,0.2506,0.6163,6.23,-0.63,7.04,
35072,1661619806968,-1.1704,0.3063,0.3961,10.52,3.0,4.86,
35073,1661619806968,-0.9229,0.6764,-0.0184,13.41,8.25,9.41,
35074,1661619806968,-1.0982,0.738,0.569,17.6,26.95,2.94,
35075,1661619806968,-0.9693,0.4767,-0.0931,23.33,5.2,4.59,
35076,1661619806968,-0.999,0.5143,0.1798,20.83,12.22,11.06,
35077,1661619806968,-0.833,0.9919,0.3785,23.21,-0.89,0.39,
35078,1661619806968,-0.7803,1.1691,-0.3187,29.91,-1.48,0.76,
35079,1661619806968,-0.7529,0.3376,-0.2626,29.31,3.25,1.66,
35080,1661619806975,-0.7598,0.9367,-0.2289,33.31,2.15,-3.25,
35081,1661619806975,-0.7637,0.9313,-0.0648,37.01,7.99,-4.81,
35082,1661619806975,-0.8779,0.7995,-0.0677,40.51,6.3,-6.0,
35083,1661619806975,-0.8081,0.7062,0.0114,40.41,2.5,-1.53,
35084,1661619806975,-0.8267,0.3976,0.0553,34.21,-3.17,-6.37,
35085,1661619806975,-0.8125,0.7795,-0.0609,43.2,-5.28,-5.36,
35086,1661619806975,-0.8335,0.2028,0.0577,49.29,14.68,-5.82,
35087,1661619806975,-0.7495,-0.0365,0.0475,46.21,17.38,-6.54,
35088,1661619806975,-0.7451,0.4069,-0.2494,38.21,-0.72,-9.1,
35089,1661619806975,-0.7559,-0.0047,-0.2001,36.79,-12.06,-1.71,
35090,1661619806975,-0.8921,-0.0609,-0.0907,41.52,-16.36,-3.53,
35091,1661619806975,-0.7808,-0.0116,-0.3041,35.81,-13.06,1.31,
35092,1661619806975,-0.9131,-0.4564,-0.2181,26.71,-14.25,4.5,
35093,1661619806975,-0.7329,0.0505,0.0646,25.81,-22.2,2.39,
35094,1661619806975,-0.6919,-0.1453,-0.1239,27.39,-31.51,-2.35,
35095,1661619806975,-0.8462,-0.0604,0.2609,23.12,-5.45,-2.35,
35096,1661619806975,-0.981,-0.45,-0.0018,18.91,-1.22,-6.0,
35097,1661619806975,-0.9092,-0.4749,-0.0668,9.23,-11.46,-3.25,
35098,1661619806975,-0.8438,0.2301,0.0514,20.71,-22.46,-8.0,
35099,1661619806975,-1.0083,-0.5257,0.0841,20.31,-9.51,1.03,
35100,1661619806975,-1.0112,-0.4085,-0.1136,9.92,-8.93,-8.09,
35101,1661619806975,-0.9785,0.1584,0.108,0.41,-5.11,-7.45,
35102,1661619806975,-1.0918,-0.368,0.0822,0.7,-14.08,-10.01,
35103,1661619806975,-1.0225,-0.3973,0.3053,5.82,-10.87,-5.45,
35104,1661619806975,-1.0913,-0.4632,0.2853,1.22,-8.41,-9.28,
35105,1661619806975,-1.0083,-0.1776,0.1315,-4.39,-7.66,-13.66,
35106,1661619806975,-1.0742,-0.2347,0.2716,-3.6,3.17,-13.94,
35107,1661619806975,-1.1055,-0.766,0.3004,-4.06,7.99,-9.92,
35108,1661619806975,-1.0747,-0.2899,-0.0546,-10.18,4.77,-10.11,
35109,1661619806975,-1.1626,-0.4618,0.2941,-18.06,4.1,-9.74,
35110,1661619806975,-1.232,-0.5155,-0.0267,-12.77,-8.84,-7.82,
35111,1661619806975,-1.1572,-0.4427,0.0651,-16.97,-6.04,-8.73,
35112,1661619806975,-1.4126,-0.4788,0.4865,-19.16,-5.11,-11.37,
35113,1661619806975,-1.1465,-0.2103,0.2804,-20.58,-8.0,-4.08,
35114,1661619806991,-1.3135,-0.388,0.4845,-21.95,-6.55,-3.07,
35115,1661619806991,-1.3277,-0.1869,0.6217,-22.49,-4.7,1.38,
35116,1661619806991,-1.2686,-0.0428,0.4611,-17.09,-5.37,3.86,
35117,1661619806991,-1.336,-0.0492,0.588,-13.97,6.64,-1.62,
35118,1661619806991,-1.1734,0.3034,0.2072,-12.97,-0.29,2.39,
35119,1661619806991,-1.2246,-0.1097,0.4459,-13.38,8.76,3.49,
35120,1661619806991,-1.1919,0.3185,0.2535,-8.48,-2.67,4.04,
35121,1661619806991,-1.124,0.4748,-0.0878,-2.77,-2.84,2.76,
35122,1661619806991,-1.0152,0.3703,0.0758,-3.16,0.29,7.14,
35123,1661619806991,-1.1416,0.5407,0.3825,-1.48,4.94,0.21,
35124,1661619806991,-1.0835,0.3005,0.0397,3.12,-4.01,3.67,
35125,1661619806991,-1.0713,0.4259,0.0831,1.62,1.48,6.22,
35126,1661619806991,-1.0669,0.964,0.588,4.52,9.0,1.66,
35127,1661619806991,-1.1572,0.3659,0.2716,10.1,6.9,6.31,
35128,1661619806991,-1.0503,0.5617,0.319,16.51,14.34,6.04,
35129,1661619806991,-1.0513,0.8219,0.4157,16.45,19.68,2.67,
35130,1661619806991,-1.0674,0.5988,0.11,21.21,21.19,7.96,
35131,1661619806991,-1.0244,0.6183,-0.0131,21.01,17.64,4.04,
35132,1661619806991,-0.8862,0.5856,0.1046,22.19,16.71,3.12,
35133,1661619806991,-0.9517,0.6007,-0.1952,24.61,1.65,0.21,
35134,1661619806991,-0.9151,0.7306,-0.2191,28.81,-3.01,-0.43,
35135,1661619806991,-0.9409,0.3566,0.0289,31.8,-8.24,3.76,
35136,1661619806991,-0.9243,0.4416,0.0099,30.11,-3.77,3.12,
35137,1661619806991,-0.7671,0.5812,-0.0448,32.6,-3.85,4.95,
35138,1661619806991,-0.8511,0.4132,0.298,36.1,13.75,6.95,
35139,1661619806991,-0.8154,0.6305,0.2101,38.82,6.3,2.94,
35140,1661619806991,-0.8242,0.5519,-0.1732,37.31,7.14,2.76,
35141,1661619806991,-0.6968,0.5998,0.1295,35.4,-0.72,4.13,
35142,1661619806991,-0.7798,0.4245,-0.142,39.49,-14.85,6.04,
35143,1661619806991,-0.7432,0.258,-0.0702,39.61,-3.01,4.68,
35144,1661619806991,-0.6948,0.6315,-0.4198,41.11,-8.59,3.58,
35145,1661619806991,-0.6856,0.5822,-0.2587,42.89,7.14,-0.16,
35146,1661619806991,-0.836,0.1369,-0.0082,40.41,-6.38,-3.25,
35147,1661619806991,-0.7007,0.3605,-0.2572,35.6,-6.9,-2.71,
35148,1661619806991,-0.7686,0.2106,-0.0834,37.51,-12.06,-3.07,
35149,1661619806991,-0.8789,0.1935,0.1725,38.0,-1.05,-4.54,
35150,1661619806991,-0.8521,0.0011,0.0704,34.69,-0.89,-6.9,
35151,1661619806991,-0.8472,-0.3119,-0.0878,28.41,3.51,-9.47,
35152,1661619807006,-0.7876,-0.0643,0.0372,27.3,-0.89,-8.92,
35153,1661619807006,-0.8814,-0.5164,-0.0658,25.7,-4.52,-3.25,
35154,1661619807006,-0.8799,-0.4129,-0.306,16.7,-13.32,-2.89,
35155,1661619807006,-0.8272,-0.4432,-0.1688,9.92,-8.0,-9.37,
35156,1661619807006,-1.0122,-0.6986,-0.1083,11.23,-19.5,-11.19,
35157,1661619807006,-0.9414,-0.4095,-0.0878,10.93,-26.52,-7.08,
35158,1661619807006,-1.0796,-0.6278,0.0973,3.12,-23.64,-8.64,
35159,1661619807006,-0.9126,-0.5203,0.0939,-0.06,-14.59,-10.2,
35160,1661619807006,-0.9126,-0.5531,0.195,-0.58,-13.06,-11.28,
35161,1661619807006,-0.9961,-0.5296,0.3253,-4.9,-18.57,-5.09,
35162,1661619807006,-0.9663,-0.3582,-0.0052,-8.79,-14.85,-3.9,
35163,1661619807006,-1.1699,-0.5765,0.4459,-9.18,-1.31,-3.35,
35164,1661619807006,-1.1255,-0.1038,0.3502,-11.58,-5.97,-1.16,
35165,1661619807006,-1.1133,-0.2054,0.0636,-14.39,-1.65,1.75,
35166,1661619807006,-1.1494,-0.2464,0.1447,-15.47,-1.65,-0.71,
35167,1661619807006,-1.1494,-0.0379,0.3619,-16.46,-2.32,2.48,
35168,1661619807006,-1.2471,-0.099,0.3878,-14.19,-2.75,-0.98,
35169,1661619807006,-1.1865,-0.0409,0.3771,-13.18,7.14,-1.26,
35170,1661619807006,-1.1914,-0.1932,0.4313,-15.18,10.28,-4.44,
35171,1661619807006,-1.1875,-0.033,0.4308,-17.27,3.68,-7.73,
35172,1661619807006,-1.1675,0.1139,0.4562,-16.48,5.46,-8.55,
35173,1661619807006,-1.1724,-0.2352,0.3844,-13.67,10.02,-6.81,
35174,1661619807006,-1.1821,0.0114,0.1989,-12.07,4.61,-5.64,
35175,1661619807006,-1.1641,-0.0247,0.3195,-11.87,5.46,-6.28,
35176,1661619807006,-1.2266,0.0089,0.2252,-10.18,-4.01,-2.89,
35177,1661619807006,-1.0894,0.007,0.131,-8.98,-6.04,2.3,
35178,1661619807006,-1.1597,-0.0096,0.2335,-6.86,-2.41,5.58,
35179,1661619807006,-1.1753,0.2643,0.3307,-4.77,-0.98,1.38,
35180,1661619807006,-1.0703,0.2174,0.1412,-0.68,-6.14,7.87,
35181,1661619807006,-1.1738,0.4069,0.4943,1.21,-0.12,8.88,
35182,1661619807006,-1.1045,0.5329,0.545,7.01,5.8,7.41,
35183,1661619807006,-1.2027,0.3595,0.213,7.51,10.28,12.16,
35184,1661619807006,-0.9986,0.714,0.2389,9.62,13.58,11.88,
35185,1661619807006,-1.1138,0.5871,0.2257,13.0,8.33,6.77,
35186,1661619807022,-1.0913,0.4928,0.2872,18.11,14.42,10.33,
35187,1661619807022,-1.0405,0.9362,0.049,20.83,5.03,9.5,
35188,1661619807022,-0.9404,0.8981,0.1246,22.42,16.28,3.4,
35189,1661619807022,-0.8487,0.8776,-0.1649,23.99,6.97,5.14,
35190,1661619807022,-0.772,0.9367,-0.0414,21.5,12.39,3.4,
35191,1661619807022,-0.8316,0.8571,0.0861,26.63,8.67,4.5,
35192,1661619807022,-0.876,1.006,-0.1293,34.4,1.74,3.49,
35193,1661619807022,-0.8565,0.5158,-0.1097,43.4,3.43,2.39,
35194,1661619807022,-0.8482,0.5255,0.0895,42.89,9.18,1.03,
35195,1661619807022,-0.8364,0.7619,-0.0731,38.9,5.87,1.03,
35196,1661619807022,-0.8516,0.4196,-0.2186,39.11,12.31,0.76,
35197,1661619807022,-0.8369,0.2516,0.0802,38.0,9.0,-2.61,
35198,1661619807022,-0.7725,0.3293,-0.225,36.41,-5.45,0.48,
35199,1661619807022,-0.8091,0.0124,-0.1586,38.0,-15.09,0.3,
35200,1661619807022,-0.7979,0.1813,-0.118,41.58,-16.88,-0.16,
35201,1661619807022,-0.6802,0.152,-0.1293,39.51,-2.24,-0.34,
35202,1661619807022,-0.8853,-0.1029,-0.0179,31.33,-5.71,-2.61,
35203,1661619807022,-0.7442,0.1164,-0.2972,34.59,-15.95,-3.07,
35204,1661619807022,-0.7349,-0.1239,-0.0726,33.79,-13.49,-0.25,
35205,1661619807022,-0.711,0.4035,0.0856,31.6,-4.35,-2.98,
35206,1661619807022,-0.9331,-0.2161,-0.2342,29.01,-11.12,-1.62,
35207,1661619807022,-0.9116,-0.1488,0.089,25.01,-15.69,-4.26,
35208,1661619807022,-0.8574,0.2995,0.0968,22.91,-15.85,-4.99,
35209,1661619807022,-0.8262,-0.2767,-0.0795,21.73,-4.44,-2.89,
35210,1661619807022,-0.9605,-0.2581,-0.1307,16.91,-1.22,-5.09,
35211,1661619807022,-0.9409,-0.2435,0.296,14.91,-1.56,-4.17,
35212,1661619807022,-0.9634,-0.0218,-0.0331,12.51,-22.8,-10.11,
35213,1661619807022,-0.9624,-0.0208,0.0724,13.61,-5.45,-9.65,
35214,1661619807022,-1.0689,-0.7547,0.4606,5.82,4.61,-8.18,
35215,1661619807022,-0.9522,-0.1995,-0.055,2.4,0.81,-11.37,
35216,1661619807022,-0.9629,-0.4622,0.1666,4.72,2.75,-16.03,
35217,1661619807022,-0.979,-0.6576,0.1295,1.41,-6.9,-10.29,
35218,1661619807037,-0.9707,-0.5438,-0.0248,-7.08,-13.15,-12.65,
35219,1661619807037,-1.0313,-0.6414,0.0499,-8.36,-1.74,-3.44,
35220,1661619807037,-1.1636,-0.4705,0.1495,-11.26,-4.94,-10.82,
35221,1661619807037,-1.0869,-0.6175,0.0719,-16.37,-6.9,-6.37,
35222,1661619807037,-1.2559,-0.5579,0.4332,-22.47,-7.48,-7.18,
35223,1661619807037,-1.1016,-0.2093,0.1354,-17.18,-12.65,-1.81,
35224,1661619807037,-1.2554,-0.4437,0.5065,-15.87,1.4,-4.81,
35225,1661619807037,-1.1865,0.0426,0.6676,-19.68,-2.92,-1.71,
35226,1661619807037,-1.2652,-0.3538,0.15,-17.39,-4.78,-1.81,
35227,1661619807037,-1.2608,-0.0111,0.6071,-16.37,3.84,-0.8,
35228,1661619807037,-1.2495,0.1857,0.4117,-14.66,4.36,0.67,
35229,1661619807037,-1.1299,-0.0116,0.2452,-13.29,9.09,1.38,
35230,1661619807037,-1.1314,0.2799,0.1779,-11.87,3.08,-0.07,
35231,1661619807037,-1.1182,0.1789,0.3131,-8.77,5.11,2.02,
35232,1661619807037,-1.1548,0.3146,0.1984,-7.18,-1.39,-0.07,
35233,1661619807037,-1.0537,0.6066,0.2072,-9.98,5.63,-1.62,
35234,1661619807037,-1.0737,0.2931,0.2067,-6.07,4.1,-1.07,
35235,1661619807037,-1.0659,0.297,0.2257,1.13,9.09,0.39,
35236,1661619807037,-0.999,0.6056,0.1588,4.52,10.36,2.3,
35237,1661619807037,-1.001,0.3693,0.0773,7.22,13.41,-0.43,
35238,1661619807037,-1.0733,0.4289,0.2291,9.92,17.13,3.03,
35239,1661619807037,-1.21,0.3507,0.3742,11.22,13.58,7.5,
35240,1661619807037,-1.1065,0.3053,-0.0135,11.61,4.27,4.68,
35241,1661619807037,-1.0235,0.6315,0.132,14.9,3.51,4.68,
35242,1661619807037,-1.0596,0.4079,0.3302,17.2,5.63,11.97,
35243,1661619807037,-1.1499,0.3512,0.0534,19.7,-4.11,4.95,
35244,1661619807037,-0.7813,0.7091,-0.0692,19.21,-0.29,9.78,
35245,1661619807037,-0.999,0.487,0.3746,23.32,8.59,8.24,
35246,1661619807037,-1.0601,0.5241,0.2662,26.09,7.14,11.06,
35247,1661619807037,-0.8555,0.5197,-0.267,28.8,0.72,9.23,
35248,1661619807037,-0.8814,0.6686,0.15,28.51,6.13,4.13,
35249,1661619807037,-0.8198,0.7453,0.0612,32.31,-2.15,11.24,
35250,1661619807037,-0.7432,0.2072,-0.3841,34.81,-12.56,10.05,
35251,1661619807037,-0.6641,0.5675,-0.2982,34.11,-2.75,7.78,
35252,1661619807037,-0.7652,1.0651,0.2775,35.62,17.55,0.85,
35253,1661619807037,-0.8091,0.3708,-0.1786,39.02,3.51,7.87,
35254,1661619807053,-0.6236,0.3962,-0.3988,36.99,3.68,4.22,
35255,1661619807053,-0.7666,0.7814,0.5211,37.8,6.64,-1.16,
35256,1661619807053,-0.7686,0.882,0.0324,41.32,-16.71,-3.25,
35257,1661619807053,-0.7427,0.4005,-0.5204,46.89,-3.51,-0.71,
35258,1661619807053,-0.7578,-0.0609,0.4113,42.21,11.38,-1.44,
35259,1661619807053,-0.7837,0.4997,-0.1947,40.19,2.07,-6.37,
35260,1661619807053,-0.7642,0.028,-0.3241,43.31,-2.08,-9.65,
35261,1661619807053,-0.857,-0.2152,0.3639,34.2,-1.82,-6.63,
35262,1661619807053,-0.8858,-0.1634,-0.4403,28.22,-18.31,-8.09,
35263,1661619807053,-0.8789,-0.3934,-0.1112,25.19,-8.84,-5.82,
35264,1661619807053,-0.876,-0.2835,0.2662,26.81,-8.59,-7.91,
35265,1661619807053,-0.7691,-0.4149,-0.1146,18.63,-15.85,-8.73,
35266,1661619807053,-0.9741,-0.4632,-0.2377,7.22,-23.8,-10.55,
35267,1661619807053,-0.8472,-0.2855,0.2267,12.12,-15.78,-10.91,
35268,1661619807053,-0.9932,-0.5472,0.0529,13.92,-17.29,-7.82,
35269,1661619807053,-0.9639,-0.1395,-0.1112,6.11,-18.48,-9.19,
35270,1661619807053,-0.9966,-0.5394,0.1847,3.3,-9.69,-7.36,
35271,1661619807053,-0.9766,-0.2147,0.2487,3.02,-12.3,-10.64,
35272,1661619807053,-1.1206,-0.305,0.0304,-1.78,-14.25,-9.47,
35273,1661619807063,-0.9483,-0.5413,0.1491,-2.68,-10.7,-5.54,
35274,1661619807063,-1.0352,-0.1629,0.2643,-3.89,-4.44,-1.16,
35275,1661619807063,-1.106,-0.2528,0.1793,-7.28,-5.88,-1.16,
35276,1661619807063,-1.169,-0.2733,0.0494,-11.37,-9.69,-5.36,
35277,1661619807063,-1.083,-0.1019,0.4083,-12.78,6.22,-0.43,
35278,1661619807063,-1.1983,-0.2889,0.2355,-12.59,3.25,-4.44,
35279,1661619807063,-1.167,-0.0648,0.2057,-8.59,14.08,-4.81,
35280,1661619807063,-1.1763,-0.3275,0.485,-14.37,7.23,-7.91,
35281,1661619807063,-1.2012,-0.1361,0.2164,-18.26,-0.12,-4.54,
35282,1661619807063,-1.2075,-0.2987,0.2858,-11.17,3.0,-3.99,
35283,1661619807063,-1.2197,-0.4105,0.3326,-11.58,4.94,-2.35,
35284,1661619807063,-1.1309,-0.0462,0.1495,-19.06,3.17,-1.16,
35285,1661619807063,-1.2158,-0.2674,0.3522,-19.07,-0.55,4.41,
35286,1661619807063,-1.3179,-0.2552,0.4313,-17.36,-10.44,2.12,
35287,1661619807063,-1.0498,0.0295,0.1349,-13.78,-9.43,4.5,
35288,1661619807063,-1.2256,0.0353,0.5153,-11.46,-5.37,6.95,
35289,1661619807063,-1.1289,0.1833,0.4147,-6.57,-0.63,4.13,
35290,1661619807063,-1.2193,0.0246,0.3087,-4.18,2.84,6.68,
35291,1661619807063,-1.1226,0.3571,0.3307,-4.9,4.61,1.57,
35292,1661619807063,-1.0308,0.5719,0.1422,-0.76,-0.63,5.67,
35293,1661619807063,-1.0449,0.2218,0.3854,3.5,9.09,7.14,
35294,1661619807063,-1.043,0.5046,0.1867,5.42,2.15,6.13,
35295,1661619807063,-1.001,0.7956,-0.1014,10.73,7.23,10.05,
35296,1661619807063,-0.9854,0.5002,0.3253,11.92,15.11,10.42,
35297,1661619807063,-1.0698,0.8263,0.215,11.23,13.99,9.23,
35298,1661619807063,-1.001,0.778,0.1486,15.29,5.54,6.68,
35299,1661619807063,-1.0083,0.8571,0.2301,18.1,6.3,6.13,
35300,1661619807063,-0.8604,0.8879,0.3717,24.8,11.46,3.67,
35301,1661619807063,-0.8687,0.6383,-0.0702,27.91,15.94,5.14,
35302,1661619807063,-0.8438,0.8835,-0.1708,28.22,19.33,1.48,
35303,1661619807063,-0.9346,0.7995,0.15,33.31,18.81,2.76,
35304,1661619807078,-0.9336,0.3571,-0.0482,33.01,10.19,1.03,
35305,1661619807078,-0.8858,0.6413,-0.2494,34.5,3.77,-0.98,
35306,1661619807078,-0.812,0.4152,-0.0756,36.32,-0.21,-1.07,
35307,1661619807078,-0.8589,0.4699,-0.1708,37.2,-10.44,-0.8,
35308,1661619807078,-0.8018,0.4557,-0.0804,34.7,-6.47,4.59,
35309,1661619807078,-0.8736,0.2013,0.067,38.5,-10.03,4.5,
35310,1661619807078,-0.8692,0.3229,-0.1498,40.88,2.33,1.84,
35311,1661619807078,-0.585,0.2536,-0.0785,42.68,2.67,-0.71,
35312,1661619807078,-0.6475,0.4801,0.3497,37.72,15.11,0.12,
35313,1661619807078,-0.6787,0.1335,-0.4154,40.59,1.74,1.93,
35314,1661619807078,-0.7979,-0.1683,-0.5931,40.61,0.88,2.21,
35315,1661619807078,-0.6397,0.4035,0.2199,36.09,-11.03,-6.37,
35316,1661619807078,-0.8399,0.2721,-0.182,33.6,-24.83,-6.9,
35317,1661619807078,-0.7363,-0.0355,-0.5355,35.89,-18.48,-6.0,
35318,1661619807078,-0.8325,0.1711,0.1183,29.41,7.99,-4.99,
35319,1661619807078,-0.8594,0.1242,0.1373,27.0,0.21,-5.27,
35320,1661619807078,-0.94,0.1676,-0.2489,26.2,-7.57,-9.92,
35321,1661619807078,-0.8516,-0.1229,0.1671,24.9,-10.7,-8.55,
35322,1661619807078,-0.9658,-0.1952,0.3063,19.29,-12.82,-14.93,
35323,1661619807078,-0.8399,0.0895,-0.0633,22.69,4.01,-12.29,
35324,1661619807078,-0.9497,-0.5223,0.1173,20.92,10.45,-15.84,
35325,1661619807078,-0.9243,-0.3729,-0.017,12.32,-5.71,-10.82,
35326,1661619807078,-0.999,-0.5223,-0.2455,6.73,-14.25,-7.18,
35327,1661619807078,-0.9937,-0.5667,0.0494,7.22,-10.79,-5.09,
35328,1661619807078,-0.9209,-0.6532,-0.1551,-0.06,-12.47,-5.54,
35329,1661619807078,-1.0464,-0.8084,-0.0175,-3.57,-12.73,-3.8,
35330,1661619807089,-1.0171,-0.4481,0.1354,-7.98,-20.25,-4.35,
35331,1661619807089,-0.9712,-0.6263,0.2589,-6.88,-16.11,-3.71,
35332,1661619807089,-1.252,-0.6522,0.3756,-13.58,-15.61,-7.73,
35333,1661619807089,-1.0718,-0.3744,0.2223,-17.97,-7.14,-4.9,
35334,1661619807089,-1.229,-0.4242,0.5289,-13.49,1.98,-6.37,
35335,1661619807089,-1.145,-0.0462,0.4323,-14.95,-8.24,-5.27,
35336,1661619807089,-1.2451,-0.3958,0.0914,-13.67,1.31,-4.35,
35337,1661619807089,-1.1709,-0.0106,0.5919,-14.48,6.13,-6.9,
35338,1661619807089,-1.249,-0.0194,0.1505,-16.68,-1.22,-9.83,
35339,1661619807089,-1.1797,-0.1405,0.2448,-17.38,-1.56,-5.82,
35340,1661619807089,-1.1768,0.2062,0.5748,-19.18,4.44,-3.53,
35341,1661619807089,-1.1411,0.1193,0.4811,-13.29,0.98,0.67,
35342,1661619807089,-1.2085,0.0734,0.2296,-13.38,-2.84,-5.36,
35343,1661619807089,-1.1328,0.3708,0.609,-14.17,8.5,-2.17,
35344,1661619807089,-1.1934,0.1076,0.401,-11.27,10.45,1.57,
35345,1661619807089,-1.1494,0.3473,0.3009,-6.76,13.58,-3.71,
35346,1661619807089,-1.1431,0.109,0.275,-3.86,11.12,-2.08,
35347,1661619807089,-1.0523,0.1652,0.1388,-3.98,6.3,0.3,
35348,1661619807089,-1.0943,0.4797,0.0167,1.33,3.17,6.13,
35349,1661619807089,-1.1358,0.1296,0.1417,2.92,3.6,3.58,
35350,1661619807089,-1.1397,0.0929,0.0836,7.02,-6.3,7.14,
35351,1661619807089,-1.0928,0.4298,-0.0057,8.73,-0.98,9.06,
35352,1661619807089,-1.2202,0.2511,0.295,9.02,-0.05,10.78,
35353,1661619807089,-1.1455,0.3747,0.2911,9.43,4.18,6.22,
35354,1661619807089,-1.0005,0.4338,0.2745,11.72,0.29,7.04,
35355,1661619807089,-1.2451,0.5993,0.4323,15.02,-0.12,7.04,
35356,1661619807089,-1.0864,0.7511,0.4025,22.51,0.55,10.14,
35357,1661619807089,-1.0523,0.1852,-0.0409,24.42,6.56,8.97,
35358,1661619807089,-0.7427,0.9967,0.0465,23.9,5.71,5.49,
35359,1661619807089,-0.8755,1.0837,0.0729,23.32,11.03,9.23,
35360,1661619807089,-0.8965,0.7091,0.1105,28.2,20.93,8.24,
35361,1661619807089,-0.6914,0.6125,-0.7518,34.61,-4.27,4.5,
35362,1661619807089,-0.7749,0.7223,0.1173,34.72,9.6,5.31,
35363,1661619807089,-0.8057,0.9357,0.2809,37.72,-4.11,0.85,
35364,1661619807089,-0.8223,0.9772,-0.3632,38.68,-6.14,-0.52,
35365,1661619807104,-0.8189,0.2946,0.0172,35.81,-2.49,-1.53,
35366,1661619807104,-0.8682,0.8029,0.2252,37.6,6.8,-3.07,
35367,1661619807104,-0.7871,0.55,-0.1732,48.2,8.59,-3.9,
35368,1661619807104,-0.8325,0.2721,-0.0829,48.6,13.24,-3.16,
35369,1661619807104,-0.8159,0.444,0.1583,44.02,0.64,-2.89,
35370,1661619807104,-0.8638,-0.0536,-0.3519,41.2,-6.38,1.48,
35371,1661619807104,-0.8247,0.091,-0.2841,38.09,-8.93,-2.98,
35372,1661619807104,-0.7569,0.1359,-0.1464,37.22,-5.71,-1.62,
35373,1661619807104,-0.8809,-0.4022,-0.3846,31.82,-12.73,-0.98,
35374,1661619807104,-0.8194,-0.1185,-0.1674,25.5,-13.83,-5.73,
35375,1661619807104,-0.7417,-0.4671,-0.0389,32.5,-23.47,2.57,
35376,1661619807104,-0.8482,-0.2757,-0.1068,26.2,-13.49,-4.99,
35377,1661619807104,-0.8325,0.0392,0.1471,16.63,-8.0,-2.35,
35378,1661619807104,-0.9776,-0.5995,0.0431,11.42,-8.0,-9.37,
35379,1661619807104,-0.7964,-0.0882,0.0651,16.5,-10.1,-10.55,
35380,1661619807112,-1.0064,-0.3021,0.2047,15.41,-5.11,-8.92,
35381,1661619807112,-0.8882,-0.2645,-0.1175,10.1,-20.25,-4.99,
35382,1661619807112,-1.0298,-0.1947,0.1105,8.3,-7.91,-11.92,
35383,1661619807112,-1.0352,-0.3011,0.1534,8.12,-11.46,-6.37,
35384,1661619807112,-0.9141,-0.1536,-0.0111,-0.49,-7.23,-9.74,
35385,1661619807112,-1.0308,-0.5711,0.361,-4.5,-10.96,-4.44,
35386,1661619807112,-1.083,-0.3807,0.2452,-4.27,-12.82,-7.45,
35387,1661619807112,-1.0078,-0.1078,0.191,1.62,-4.11,-5.45,
35388,1661619807112,-1.1465,-0.4339,0.3751,-3.89,4.01,-6.99,
35389,1661619807112,-1.0249,-0.2235,0.1525,-11.59,9.09,-7.82,
35390,1661619807112,-1.1187,-0.4828,0.2057,-14.08,11.89,-6.54,
35391,1661619807112,-1.1465,-0.3114,0.1837,-8.77,1.81,-9.74,
35392,1661619807112,-1.1294,-0.4354,0.0709,-10.79,-2.75,-1.44,
35393,1661619807112,-1.2769,-0.4774,0.3077,-15.36,-5.2,-11.37,
35394,1661619807112,-1.1978,-0.222,0.2784,-20.47,-6.3,-6.09,
35395,1661619807112,-1.1734,-0.3656,0.2194,-19.07,-6.47,-3.8,
35396,1661619807112,-1.3111,-0.3416,0.4367,-21.79,-6.81,-2.98,
35397,1661619807112,-1.1846,-0.0892,0.4992,-19.18,-6.73,-0.61,
35398,1661619807112,-1.2739,-0.1683,0.5534,-16.08,5.71,-1.62,
35399,1661619807112,-1.1079,0.2585,0.379,-11.79,-0.81,-3.07,
35400,1661619807112,-1.2847,0.0343,0.5133,-13.58,5.2,-0.25,
35401,1661619807112,-1.1821,0.2668,0.2565,-7.26,-1.22,-4.26,
35402,1661619807112,-1.0825,0.1335,-0.0409,-2.39,0.55,2.21,
35403,1661619807112,-1.0537,0.1896,0.1969,-2.27,11.72,1.57,
35404,1661619807112,-1.0957,0.7458,0.1622,-3.46,1.74,2.02,
35405,1661619807112,-1.0371,0.2609,-0.2401,0.84,-3.34,5.05,
35406,1661619807112,-1.1362,0.5436,0.3322,3.22,0.29,3.58,
35407,1661619807112,-1.0972,0.8586,0.5577,5.83,6.56,5.14,
35408,1661619807112,-1.0894,0.5553,0.0797,11.71,2.91,8.51,
35409,1661619807112,-1.1006,0.6393,0.3409,15.73,13.41,5.76,
35410,1661619807112,-1.0601,0.7795,0.6207,19.23,19.07,4.04,
35411,1661619807112,-1.0518,0.6354,0.2076,24.13,18.65,2.39,
35412,1661619807112,-0.9649,0.7311,-0.0458,25.32,23.22,3.4,
35413,1661619807127,-0.982,0.5275,0.171,24.11,23.8,2.94,
35414,1661619807127,-0.9112,0.5773,-0.2645,26.02,10.02,-2.61,
35415,1661619807127,-0.9082,0.7018,-0.3329,27.8,-1.82,3.58,
35416,1661619807127,-0.919,0.338,0.0035,32.79,-3.77,4.59,
35417,1661619807127,-1.0044,0.3659,-0.1737,32.89,-6.81,5.49,
35418,1661619807127,-0.7891,0.505,-0.1571,33.01,-6.81,2.3,
35419,1661619807127,-1.041,0.2912,0.1603,34.99,-8.59,6.31,
35420,1661619807127,-0.8579,0.4167,0.3336,35.02,-1.98,6.59,
35421,1661619807127,-0.8394,0.4499,0.089,32.81,-15.43,6.5,
35422,1661619807127,-0.8262,0.5837,-0.2079,33.8,-9.93,7.04,
35423,1661619807127,-0.8233,0.4562,0.2955,40.7,4.36,7.5,
35424,1661619807127,-0.7744,0.1715,-0.0463,41.6,13.15,8.42,
35425,1661619807127,-0.5962,0.592,-0.6869,38.29,-4.7,12.43,
35426,1661619807127,-0.7344,0.4855,-0.204,34.0,2.07,5.05,
35427,1661619807127,-0.7852,0.3249,0.1554,39.58,-19.5,8.14,
35428,1661619807127,-0.7051,0.2331,-0.6825,39.69,-17.29,7.59,
35429,1661619807127,-0.7735,0.2292,0.1193,32.61,-4.27,11.61,
35430,1661619807127,-0.8726,0.4172,0.0636,30.5,-4.01,4.13,
35431,1661619807127,-0.7886,0.1242,-0.0834,32.63,-5.28,2.39,
35432,1661619807127,-0.9302,-0.1678,0.2267,29.6,3.68,-4.63,
35433,1661619807127,-0.8755,0.0802,0.2706,27.7,-3.94,-6.0,
35434,1661619807127,-0.9507,-0.4837,-0.1322,22.6,-4.27,0.3,
35435,1661619807127,-0.9185,-0.2503,0.1325,18.91,-3.17,-1.16,
35436,1661619807127,-0.8428,-0.4412,-0.2318,15.73,-3.59,-0.71,
35437,1661619807127,-0.9976,-0.596,-0.2064,15.8,-8.07,0.48,
35438,1661619807127,-1.0269,-0.4618,-0.0375,10.03,-15.78,0.67,
35439,1661619807127,-0.9644,-0.6497,0.0392,2.32,-31.85,-1.71,
35440,1661619807127,-1.0445,-0.537,-0.0878,-1.58,-19.67,-3.53,
35441,1661619807127,-0.8364,-0.6258,0.111,-1.89,-7.4,-13.02,
35442,1661619807127,-0.9331,-0.6556,0.2194,-7.87,-7.31,-12.47,
35443,1661619807127,-0.9771,-0.2401,0.1495,-7.37,-14.33,-14.47,
35444,1661619807127,-1.2349,-0.7015,0.2526,-4.18,-7.23,-12.01,
35445,1661619807127,-1.125,-0.2015,0.422,-10.18,-5.2,-17.22,
35446,1661619807127,-1.2066,-0.1253,0.2448,-15.96,3.94,-9.1,
35447,1661619807127,-1.1392,-0.1781,0.0826,-14.26,-1.22,-9.83,
35448,1661619807127,-1.1426,-0.203,0.2809,-14.58,3.34,-0.25,
35449,1661619807143,-1.1211,-0.158,0.4806,-15.09,-4.94,-2.45,
35450,1661619807143,-1.2417,0.238,0.2448,-12.57,-3.94,-2.26,
35451,1661619807143,-1.1973,-0.0868,0.4327,-14.07,3.84,-0.52,
35452,1661619807143,-1.2432,-0.0677,0.4581,-16.28,7.57,-2.71,
35453,1661619807143,-1.1509,0.3131,0.4518,-16.48,6.9,-3.71,
35454,1661619807143,-1.2285,-0.1307,0.4152,-9.87,7.9,-3.16,
35455,1661619807143,-1.1319,0.0548,0.3121,-8.28,10.45,-0.34,
35456,1661619807143,-1.0816,0.0851,0.2379,-6.39,8.25,0.03,
35457,1661619807143,-1.1441,0.0412,0.213,-7.6,7.83,-1.71,
35458,1661619807143,-1.1543,0.1408,0.0861,-7.78,0.81,-0.16,
35459,1661619807143,-1.0835,-0.0062,0.1056,-8.68,1.91,4.5,
35460,1661619807143,-1.166,0.1315,0.1222,-5.26,-7.14,7.14,
35461,1661619807143,-1.0796,0.3263,0.0236,2.41,-7.31,6.59,
35462,1661619807143,-1.1377,0.0148,0.2345,6.3,-3.51,8.78,
35463,1661619807143,-1.1685,0.5607,0.3976,6.5,-6.9,12.61,
35464,1661619807143,-1.1861,0.3776,0.4962,6.01,3.84,10.69,
35465,1661619807143,-1.1465,0.3581,0.4537,7.11,10.45,9.96,
35466,1661619807143,-0.9033,0.7419,0.2784,12.22,16.28,10.6,
35467,1661619807143,-1.1455,0.4352,0.3546,16.91,13.15,13.61,
35468,1661619807143,-0.9863,0.7477,0.0324,22.51,3.94,7.69,
35469,1661619807143,-0.9331,0.8263,0.0524,24.4,7.23,10.6,
35470,1661619807143,-0.9761,0.8595,0.2252,24.42,12.89,10.69,
35471,1661619807143,-0.835,0.967,-0.4672,27.01,7.74,10.42,
35472,1661619807143,-0.7715,0.5099,0.0338,27.82,20.6,11.33,
35473,1661619807143,-0.813,1.0671,-0.1312,32.7,2.41,8.88,
35474,1661619807143,-0.7515,1.1657,-0.4081,37.02,-3.77,4.31,
35475,1661619807143,-0.8574,0.5016,0.0949,40.39,-1.91,3.76,
35476,1661619807143,-0.8916,0.6784,0.0949,42.21,-0.63,6.4,
35477,1661619807156,-0.8115,0.4479,-0.1727,42.3,4.27,10.05,
35478,1661619807156,-0.8389,0.4679,0.2311,43.9,17.97,7.14,
35479,1661619807156,-0.8374,0.4982,0.2194,45.4,14.85,7.14,
35480,1661619807156,-0.7862,-0.0179,-0.3036,40.62,2.07,4.04,
35481,1661619807156,-0.7661,0.2091,-0.2108,33.5,-8.59,3.58,
35482,1661619807156,-0.7227,0.213,-0.2299,40.8,-20.43,1.31,
35483,1661619807156,-0.8081,-0.2391,-0.2601,43.4,-8.76,6.68,
35484,1661619807156,-0.8071,0.1027,-0.1454,39.31,-8.33,3.22,
35485,1661619807156,-0.8452,-0.0931,-0.1844,30.9,-13.66,2.67,
35486,1661619807156,-0.77,-0.1634,-0.12,29.53,-20.6,1.38,
35487,1661619807156,-0.541,0.2463,0.0592,31.59,-10.27,0.94,
35488,1661619807156,-0.8858,-0.2738,0.1012,30.81,-5.54,3.4,
35489,1661619807156,-0.8443,-0.037,-0.0399,20.19,-6.21,-4.44,
35490,1661619807156,-1.0137,-0.2054,0.1115,12.93,-17.12,-0.52,
35491,1661619807156,-0.9566,0.1134,0.0382,19.92,-12.3,-3.44,
35492,1661619807156,-0.8877,-0.0316,-0.1966,21.72,-7.57,0.03,
35493,1661619807156,-0.9844,-0.5736,0.0729,13.23,-2.15,-3.25,
35494,1661619807156,-0.9932,0.1681,0.0197,6.93,-16.88,-8.09,
35495,1661619807156,-0.9868,-0.141,-0.0389,12.21,-12.65,-9.01,
35496,1661619807156,-1.0933,-0.5697,0.3307,6.84,-8.5,-10.11,
35497,1661619807156,-0.9605,-0.2191,0.1549,1.3,-1.22,-12.47,
35498,1661619807156,-0.9361,-0.3929,-0.038,-0.26,-0.38,-14.93,
35499,1661619807156,-1.0322,-0.388,0.278,2.7,1.31,-10.01,
35500,1661619807156,-1.0698,-0.846,0.1271,-0.9,1.48,-12.29,
35501,1661619807156,-1.0982,-0.658,0.0035,-10.57,-7.14,-12.38,
35502,1661619807156,-1.0571,-0.1214,0.0958,-12.37,-3.08,-11.56,
35503,1661619807156,-1.1778,-0.7347,0.2701,-14.17,-0.55,-9.1,
35504,1661619807156,-1.2393,-0.3993,0.1222,-20.47,-7.57,-11.1,
35505,1661619807156,-1.1167,-0.4036,0.1818,-15.26,-7.48,-3.8,
35506,1661619807156,-1.3311,-0.3538,0.7741,-16.19,-3.68,-5.27,
35507,1661619807156,-1.1817,-0.077,0.3854,-19.85,-7.14,-2.35,
35508,1661619807156,-1.2412,-0.3734,0.361,-20.75,-3.25,2.48,
35509,1661619807156,-1.2642,0.0724,0.7325,-15.87,0.47,-1.26,
35510,1661619807156,-1.2852,-0.0916,0.4215,-11.98,1.57,1.31,
35511,1661619807156,-1.1587,0.0524,0.2672,-14.36,1.48,0.67,
35512,1661619807172,-1.1201,0.3639,0.2662,-12.27,7.9,2.12,
35513,1661619807172,-1.1802,-0.0658,0.4157,-9.17,10.02,3.86,
35514,1661619807172,-1.1358,0.5275,0.0729,-6.99,1.91,3.4,
35515,1661619807172,-1.0279,0.4767,0.2086,-5.8,5.37,3.76,
35516,1661619807172,-1.0733,0.2931,0.2579,-0.9,0.72,5.95,
35517,1661619807175,-1.1026,0.4884,0.2487,0.92,8.33,2.94,
35518,1661619807175,-1.1026,0.445,0.1515,3.21,5.29,2.76,
35519,1661619807175,-1.0381,0.5036,0.1364,5.74,8.76,4.31,
35520,1661619807175,-1.0698,0.6608,0.3458,8.43,11.21,3.95,
35521,1661619807175,-1.1631,0.2443,0.2731,11.4,14.92,8.05,
35522,1661619807175,-1.0698,0.5451,0.1422,14.42,14.59,4.04,
35523,1661619807175,-1.0469,0.6549,0.1119,18.69,18.07,4.86,
35524,1661619807175,-1.0679,0.3566,0.213,21.21,19.24,11.06,
35525,1661619807175,-1.021,0.5793,0.0494,21.81,7.57,3.76,
35526,1661619807175,-0.877,0.5451,0.0035,21.41,1.05,8.69,
35527,1661619807175,-0.9722,0.4547,0.0416,22.52,-5.63,1.48,
35528,1661619807175,-0.9976,0.5226,0.0812,29.1,-5.54,6.22,
35529,1661619807175,-1.0156,0.3424,0.0348,29.89,-1.39,11.61,
35530,1661619807175,-0.8496,0.736,-0.0135,32.92,5.71,5.31,
35531,1661619807175,-0.9092,0.5197,0.2081,37.11,16.62,8.88,
35532,1661619807175,-0.9463,0.3639,0.129,35.31,9.09,6.04,
35533,1661619807175,-0.6323,0.7243,-0.4886,30.31,-10.19,4.31,
35534,1661619807175,-0.8877,0.6359,0.2911,31.89,-4.52,8.05,
35535,1661619807175,-0.8213,0.6227,-0.1874,39.31,-16.62,-2.98,
35536,1661619807175,-0.625,0.338,-0.6092,45.99,0.29,6.22,
35537,1661619807175,-0.7031,0.3595,0.1144,39.49,21.03,1.31,
35538,1661619807175,-0.7759,0.8644,-0.1219,36.59,-5.28,-6.09,
35539,1661619807175,-0.707,0.1696,-0.5526,40.3,-9.51,-0.71,
35540,1661619807175,-0.8404,0.3122,0.4249,43.41,-8.07,-5.18,
35541,1661619807175,-0.7783,0.4504,-0.1908,40.5,-7.23,-5.64,
35542,1661619807175,-0.7988,-0.1253,-0.1825,37.98,2.15,-9.83,
35543,1661619807175,-0.9019,0.049,0.2784,32.81,13.15,-7.82,
35544,1661619807175,-0.8325,-0.0921,0.0934,35.11,-1.39,-8.37,
35545,1661619807175,-0.8482,-0.3568,-0.3973,27.22,-8.33,-7.45,
35546,1661619807175,-0.8111,-0.0531,0.1896,24.2,-8.41,-6.09,
35547,1661619807175,-0.8389,-0.5975,-0.1976,19.99,-11.29,-5.64,
35548,1661619807175,-0.9566,-0.2938,-0.3109,16.62,-14.16,-6.28,
35549,1661619807175,-0.8902,-0.5897,-0.0414,17.02,-19.67,-1.35,
35550,1661619807175,-0.9946,-0.4613,0.0587,8.91,-28.38,-5.64,
35551,1661619807175,-0.957,-0.2122,0.0387,4.61,-21.61,-0.61,
35552,1661619807175,-0.9531,-0.7508,0.1154,5.72,-11.96,-5.36,
35553,1661619807175,-0.9346,-0.4383,0.2609,-2.27,-6.14,-4.81,
35554,1661619807191,-1.0362,-0.2332,0.3258,-4.56,-16.54,-12.2,
35555,1661619807191,-1.021,-0.5736,-0.0511,-2.87,-14.08,-8.82,
35556,1661619807191,-1.0112,-0.2367,0.3776,-1.58,4.87,-9.65,
35557,1661619807191,-1.1143,-0.3631,0.3048,-7.58,4.1,-10.37,
35558,1661619807191,-1.0371,-0.0731,-0.1537,-11.87,-3.51,-12.84,
35559,1661619807191,-1.0913,-0.2972,0.5543,-7.87,2.75,-5.09,
35560,1661619807191,-1.1226,-0.1517,0.0363,-11.67,-7.14,-9.01,
35561,1661619807191,-1.1299,-0.0067,0.2179,-14.37,1.91,-7.45,
35562,1661619807191,-1.2154,-0.1893,0.6383,-14.28,10.28,-9.1,
35563,1661619807191,-1.1626,-0.1356,0.2936,-11.37,6.97,-9.37,
35564,1661619807191,-1.2149,-0.2103,0.172,-15.18,9.18,-9.56,
35565,1661619807191,-1.2119,-0.1546,0.5724,-17.47,5.87,-11.01,
35566,1661619807191,-1.1734,-0.055,0.2555,-14.86,1.65,-3.8,
35567,1661619807191,-1.2671,-0.2308,0.2267,-11.47,2.15,-2.26,
35568,1661619807191,-1.2534,0.0168,0.3458,-8.89,-1.05,-0.89,
35569,1661619807191,-1.2324,-0.1561,0.3175,-11.4,0.64,-0.34,
35570,1661619807191,-1.292,-0.1121,0.2692,-13.07,-1.31,0.76,
35571,1661619807191,-1.126,0.1657,0.1559,-9.47,-5.63,6.22,
35572,1661619807191,-1.2007,-0.0272,0.3268,-4.68,-2.67,5.85,
35573,1661619807191,-1.0747,0.4191,0.2208,0.7,-1.15,6.95,
35574,1661619807191,-1.1782,0.278,0.07,2.32,0.47,5.4,
35575,1661619807191,-1.1651,0.1964,0.3707,3.02,11.72,9.41,
35576,1661619807191,-1.0752,0.5754,0.1784,1.71,2.33,9.15,
35577,1661619807191,-1.1138,0.4596,0.1764,4.7,12.48,14.06,
35578,1661619807191,-1.0191,0.7409,0.2711,11.1,7.32,11.7,
35579,1661619807191,-1.0537,0.7531,0.1159,15.11,4.94,10.97,
35580,1661619807191,-1.0127,0.5641,0.2365,20.01,7.23,9.87,
35581,1661619807191,-1.1226,0.9972,0.402,21.82,11.89,7.96,
35582,1661619807191,-0.9287,0.7887,0.1193,25.39,13.24,3.95,
35583,1661619807191,-0.9468,0.6364,-0.0633,23.71,15.61,3.22,
35584,1661619807191,-0.8526,1.047,0.1183,26.29,21.27,2.12,
35585,1661619807191,-0.8897,0.7043,0.0548,35.31,16.45,3.95,
35586,1661619807191,-0.9102,0.6115,-0.2479,41.4,8.93,2.67,
35587,1661619807206,-0.9273,0.5148,-0.037,37.8,2.07,2.67,
35588,1661619807206,-0.9478,0.4674,0.0133,35.8,0.04,-1.44,
35589,1661619807206,-0.836,0.5788,-0.203,36.32,-4.94,4.31,
35590,1661619807206,-0.8159,0.2218,-0.1112,39.49,2.84,6.4,
35591,1661619807206,-0.8906,0.3141,0.0167,38.59,-2.32,5.14,
35592,1661619807206,-0.8286,0.4845,-0.0858,41.69,-5.71,0.94,
35593,1661619807206,-0.7339,-0.0501,-0.1078,39.52,-7.91,2.85,
35594,1661619807206,-0.9429,0.131,0.0075,36.52,-18.98,4.77,
35595,1661619807206,-0.8242,0.2472,0.0597,35.51,-15.61,1.75,
35596,1661619807206,-0.8677,-0.1278,-0.3387,35.69,-20.34,2.94,
35597,1661619807206,-0.6153,0.1652,-0.1146,39.42,2.07,2.02,
35598,1661619807206,-0.8233,0.0915,0.0431,36.21,1.4,6.4,
35599,1661619807206,-0.8345,0.2731,0.0201,27.62,1.4,-0.25,
35600,1661619807206,-0.7476,-0.0189,-0.3163,26.9,-16.54,1.66,
35601,1661619807206,-0.8428,-0.2235,0.2511,30.79,-2.24,-2.26,
35602,1661619807206,-0.8301,0.5036,0.007,22.33,-9.86,-4.9,
35603,1661619807206,-0.8975,-0.3719,-0.1039,18.91,-5.88,-8.37,
35604,1661619807206,-0.9932,-0.1361,0.3507,18.63,-1.48,-10.29,
35605,1661619807206,-0.9204,0.1344,0.2506,21.5,-3.25,-12.93,
35606,1661619807206,-0.9326,-0.1322,-0.1444,20.65,-9.75,-12.2,
35607,1661619807206,-0.9888,-0.3011,0.1217,12.0,0.04,-9.01,
35608,1661619807206,-1.0117,-0.5985,0.1534,8.01,-5.8,-10.91,
35609,1661619807206,-0.9639,-0.244,-0.2928,5.43,-3.59,-7.08,
35610,1661619807206,-0.9536,-0.4696,0.1378,4.23,-3.08,-6.54,
35611,1661619807206,-0.98,-0.9168,-0.0414,0.2,-5.88,-3.25,
35612,1661619807206,-0.9629,-0.2528,-0.2133,-4.88,-14.85,-9.47,
35613,1661619807206,-0.9727,-0.3875,0.0441,-4.18,-10.36,0.76,
35614,1661619807206,-1.2363,-0.8861,0.3424,-9.98,-12.99,-5.36,
35615,1661619807206,-1.043,-0.451,-0.0521,-13.38,-9.6,0.03,
35616,1661619807206,-1.1275,-0.4246,0.3839,-19.28,-3.01,-10.55,
35617,1661619807206,-1.1426,-0.1912,0.4406,-15.67,-9.0,-5.82,
35618,1661619807206,-1.2603,-0.349,0.2101,-12.97,-4.61,-7.36,
35619,1661619807206,-1.1939,0.0236,0.5553,-12.68,1.31,-8.18,
35620,1661619807206,-1.2901,-0.1156,0.3214,-15.79,-0.55,-6.0,
35621,1661619807222,-1.2173,-0.2098,0.4288,-15.36,1.14,-7.63,
35622,1661619807222,-1.1572,0.4396,0.319,-16.39,-2.32,-10.46,
35623,1661619807222,-1.1289,0.2624,0.2404,-12.88,4.44,-4.35,
35624,1661619807222,-1.2173,0.0304,0.3976,-11.17,0.21,-5.36,
35625,1661619807222,-1.1333,0.3937,0.422,-11.67,3.34,-6.63,
35626,1661619807222,-1.1353,0.2687,0.3341,-6.86,3.17,-6.37,
35627,1661619807222,-1.1431,0.4816,0.3214,-1.89,11.72,-1.71,
35628,1661619807222,-1.0923,0.1364,0.1847,-2.0,12.14,0.48,
35629,1661619807222,-1.0264,0.1901,0.1481,-1.68,14.68,1.84,
35630,1661619807222,-1.0371,0.5412,0.1725,-1.29,7.49,-0.8,
35631,1661619807222,-1.1157,0.1305,0.0372,5.04,3.34,4.13,
35632,1661619807222,-1.1065,0.3791,0.1852,9.81,1.48,8.24,
35633,1661619807222,-1.1099,0.5236,0.2076,10.03,2.84,6.59,
35634,1661619807222,-1.1109,0.1886,0.1593,14.3,4.01,9.15,
35635,1661619807222,-1.0811,0.4015,0.1637,15.63,6.47,6.86,
35636,1661619807222,-1.0698,0.4411,0.2765,14.41,9.0,8.69,
35637,1661619807222,-1.0586,0.3053,0.38,16.31,3.94,11.7,
35638,1661619807222,-1.0073,0.7091,0.1876,19.11,-0.21,8.05,
35639,1661619807222,-1.1392,0.446,0.3434,22.69,4.77,10.69,
35640,1661619807222,-0.9297,0.5226,-0.1351,29.33,-1.22,10.23,
35641,1661619807222,-0.7569,0.6872,-0.2113,33.08,10.95,12.89,
35642,1661619807232,-0.9195,0.7301,0.3839,29.09,22.12,8.6,
35643,1661619807232,-0.8013,0.7853,-0.4676,31.71,0.04,9.41,
35644,1661619807232,-0.7681,0.2687,-0.2758,35.22,4.94,13.7,
35645,1661619807232,-0.7666,1.0451,0.2672,37.42,-5.54,3.22,
35646,1661619807232,-0.7652,1.1593,-0.2816,42.39,-15.61,5.05,
35647,1661619807232,-0.8477,0.3229,-0.2801,42.89,-2.41,8.6,
35648,1661619807232,-0.8257,0.5876,0.2565,41.12,9.93,3.86,
35649,1661619807232,-0.6221,0.8141,-0.0995,39.89,9.52,5.4,
35650,1661619807232,-0.793,0.4323,-0.1898,44.28,5.8,-1.53,
35651,1661619807232,-0.8711,0.4049,0.0407,42.7,7.4,1.31,
35652,1661619807232,-0.8604,0.0177,0.0045,41.6,-0.21,-0.61,
35653,1661619807232,-0.7656,0.2243,-0.4286,42.3,-5.04,-2.89,
35654,1661619807232,-0.8535,0.0509,-0.121,40.99,-5.8,-1.71,
35655,1661619807232,-0.916,-0.3958,-0.0834,34.21,-3.34,-5.64,
35656,1661619807232,-0.8198,0.1012,-0.3143,29.1,-12.82,-5.18,
35657,1661619807232,-0.8125,-0.4564,-0.0946,25.9,-12.06,-4.99,
35658,1661619807232,-0.8174,-0.5858,-0.0272,23.21,-22.11,-0.71,
35659,1661619807232,-0.7901,-0.139,-0.0096,20.51,-19.24,-7.82,
35660,1661619807232,-0.9414,-0.3817,0.1159,16.22,-11.12,-0.61,
35661,1661619807232,-0.8989,-0.2269,-0.0043,16.7,-10.19,-4.72,
35662,1661619807232,-1.001,-0.3661,0.2252,10.84,-12.73,-2.52,
35663,1661619807232,-0.9302,-0.1981,0.0167,11.52,-19.67,-12.38,
35664,1661619807232,-0.9063,-0.3172,-0.0726,11.03,-8.76,-9.56,
35665,1661619807232,-0.9741,-0.3592,0.1559,3.12,-6.97,-11.56,
35666,1661619807232,-0.9756,-0.1458,-0.037,0.54,-11.63,-12.29,
35667,1661619807232,-1.0103,-0.6248,0.2013,-0.88,-10.44,-10.46,
35668,1661619807232,-1.0405,-0.1571,0.1979,-4.09,-14.85,-12.84,
35669,1661619807232,-1.0947,-0.3182,0.2526,-1.58,-0.63,-7.54,
35670,1661619807232,-1.0894,-0.2948,0.2907,-6.18,1.14,-6.18,
35671,1661619807232,-1.0923,-0.1195,0.236,-6.56,7.06,-6.9,
35672,1661619807232,-1.1392,-0.3231,0.3097,-9.27,7.06,-5.27,
35673,1661619807232,-1.1577,-0.2196,0.2291,-13.58,3.84,-9.92,
35674,1661619807232,-1.168,-0.4657,0.2042,-15.96,1.4,-6.28,
35675,1661619807232,-1.2061,-0.3368,0.3029,-14.07,3.0,-7.36,
35676,1661619807247,-1.1333,-0.0443,0.2111,-12.39,3.0,-2.71,
35677,1661619807247,-1.2085,-0.494,0.2355,-15.67,-0.72,-1.26,
35678,1661619807247,-1.2525,-0.3363,0.2784,-21.09,-9.1,-1.71,
35679,1661619807247,-1.2027,-0.0946,0.3756,-14.68,-6.55,-0.07,
35680,1661619807247,-1.3941,-0.3045,0.6598,-12.17,-0.98,0.12,
35681,1661619807247,-1.1743,0.1183,0.3839,-14.78,-3.42,3.67,
35682,1661619807247,-1.1563,0.0417,0.3947,-14.69,5.03,1.66,
35683,1661619807247,-1.1314,0.423,0.5983,-4.5,7.23,-0.16,
35684,1661619807247,-1.2427,0.1017,0.1305,2.92,8.16,6.22,
35685,1661619807247,-1.1045,0.0475,0.1534,1.1,15.18,-0.25,
35686,1661619807247,-1.0537,0.6877,0.2887,-1.89,5.2,0.58,
35687,1661619807247,-1.0684,0.3454,0.0529,-1.77,3.6,11.42,
35688,1661619807247,-1.0552,0.6676,-0.099,3.22,-8.67,6.68,
35689,1661619807253,-1.0083,0.8771,0.046,5.92,-2.75,5.76,
35690,1661619807253,-1.106,0.4992,0.2262,17.52,2.07,9.15,
35691,1661619807253,-1.1397,0.6784,0.2252,19.12,15.01,10.51,
35692,1661619807253,-1.0122,0.8092,0.2716,21.01,25.42,10.6,
35693,1661619807253,-1.0405,0.7174,0.1598,16.21,24.99,6.59,
35694,1661619807253,-0.9697,0.8444,0.2921,20.42,24.23,3.12,
35695,1661619807253,-1.0264,0.4836,0.191,21.52,13.49,8.78,
35696,1661619807253,-0.8975,0.7155,-0.2445,27.32,4.36,0.39,
35697,1661619807253,-0.9981,0.7614,0.0802,36.88,7.23,0.58,
35698,1661619807253,-0.919,0.3581,0.1134,39.39,7.57,1.75,
35699,1661619807253,-0.9693,0.2106,-0.3529,35.3,-3.01,6.22,
35700,1661619807253,-0.8687,0.6872,-0.0511,33.92,5.2,4.68,
35701,1661619807253,-0.8941,0.2648,-0.0345,33.89,-4.78,0.67,
35702,1661619807253,-0.8291,0.1911,-0.1937,37.58,-8.07,3.03,
35703,1661619807253,-0.8491,0.2629,0.1627,35.11,-9.0,3.12,
35704,1661619807253,-0.7857,0.5285,-0.0687,38.39,-13.83,1.48,
35705,1661619807261,-0.5225,0.3869,-0.2289,41.31,-3.59,1.48,
35706,1661619807261,-0.9141,0.1178,0.3888,37.91,18.14,7.5,
35707,1661619807261,-0.7569,0.3341,-0.0629,37.51,-8.84,6.13,
35708,1661619807261,-0.7227,0.2931,-0.6234,36.41,-7.07,4.5,
35709,1661619807261,-0.7476,0.3141,0.4645,41.12,-9.69,6.31,
35710,1661619807261,-0.7578,0.2785,-0.5428,40.68,-14.08,2.85,
35711,1661619807261,-0.7754,-0.1234,-0.2635,33.89,-4.01,2.94,
35712,1661619807261,-0.8902,0.4074,0.3737,28.81,-2.15,-6.63,
35713,1661619807261,-0.7539,0.4059,0.0968,34.09,-14.85,-5.45,
35714,1661619807261,-0.958,-0.0379,-0.0829,27.61,-11.29,-8.82,
35715,1661619807261,-0.8775,0.0099,0.3737,22.72,3.6,-5.91,
35716,1661619807261,-0.8872,-0.245,0.07,24.0,1.65,-6.63,
35717,1661619807261,-0.8765,0.0397,-0.0282,24.31,4.18,-12.01,
35718,1661619807261,-0.9414,-0.5233,0.0138,24.6,1.4,-13.48,
35719,1661619807261,-0.9312,-0.6307,-0.118,17.52,-6.38,-15.66,
35720,1661619807261,-0.9487,-0.223,-0.1698,7.2,-15.69,-14.74,
35721,1661619807261,-1.0025,-0.6732,-0.0507,6.23,-15.85,-15.02,
35722,1661619807261,-0.9707,-0.5736,-0.1244,-0.68,-13.92,-12.29,
35723,1661619807261,-0.9453,-0.7928,-0.0546,-1.07,-17.12,-4.17,
35724,1661619807261,-1.0474,-0.7318,0.1007,-6.68,-21.7,-9.74,
35725,1661619807261,-0.999,-0.3294,0.3273,-7.86,-20.08,-4.54,
35726,1661619807261,-1.2339,-0.6278,0.2252,-10.3,-9.1,-2.35,
35727,1661619807261,-1.1509,-0.4466,0.257,-10.75,0.29,2.3,
35728,1661619807261,-1.2456,-0.1434,0.3859,-12.28,2.41,-4.17,
35729,1661619807261,-1.1763,-0.0418,0.3717,-14.77,-0.46,0.94,
35730,1661619807261,-1.2017,-0.304,0.0861,-13.78,-12.3,-0.34,
35731,1661619807261,-1.1504,-0.1668,0.4825,-13.49,1.65,1.31,
35732,1661619807261,-1.1709,0.2135,0.2184,-14.46,3.0,-4.9,
35733,1661619807261,-1.2066,0.0636,0.1261,-12.97,3.25,-1.44,
35734,1661619807261,-1.2632,-0.1829,0.3839,-16.48,-3.17,-4.08,
35735,1661619807261,-1.1641,0.2643,0.6071,-14.28,-2.15,-4.08,
35736,1661619807261,-1.2588,0.0539,0.2838,-10.28,-1.22,-5.73,
35737,1661619807261,-1.1519,0.1383,0.4347,-5.66,17.38,-3.44,
35738,1661619807261,-1.1162,0.0846,0.358,-7.98,17.88,-6.09,
35739,1661619807276,-1.1021,0.1125,0.212,-9.56,12.05,-4.26,
35740,1661619807276,-1.1553,0.2428,0.0949,-9.4,2.5,-1.9,
35741,1661619807276,-1.0728,0.0353,0.1207,-5.17,5.54,3.03,
35742,1661619807276,-1.0957,0.2839,0.0065,-1.17,-2.92,4.22,
35743,1661619807276,-1.1265,0.1447,0.1222,5.62,2.24,1.22,
35744,1661619807276,-1.1851,0.0412,0.2003,9.74,-0.29,9.59,
35745,1661619807276,-1.1201,0.3478,0.1437,6.82,0.55,7.41,
35746,1661619807276,-1.1856,0.3576,0.4254,6.5,1.14,13.24,
35747,1661619807276,-1.2617,0.2414,0.5636,10.2,3.84,15.62,
35748,1661619807280,-0.916,0.4875,0.2946,11.72,-0.05,14.25,
35749,1661619807280,-1.0855,0.6281,0.4713,13.7,15.11,14.52,
35750,1661619807280,-1.021,0.609,0.2506,21.3,8.59,12.98,
35751,1661619807282,-1.0371,0.3654,0.1071,22.19,16.54,15.35,
35752,1661619807282,-0.9912,0.6403,0.4298,20.92,18.23,14.43,
35753,1661619807282,-0.7852,1.3112,-0.2137,24.2,1.81,8.97,
35754,1661619807282,-0.8213,0.4787,-0.3422,28.72,2.58,13.24,
35755,1661619807282,-0.919,0.7668,0.1212,28.0,-4.11,7.5,
35756,1661619807282,-0.7368,1.0461,-0.2596,32.11,-10.87,9.23,
35757,1661619807282,-0.8028,0.8683,0.0079,38.0,-1.91,4.59,
35758,1661619807282,-0.8062,0.8371,0.1075,44.02,16.54,0.67,
35759,1661619807282,-0.7373,0.4245,-0.1034,43.6,16.88,6.31,
35760,1661619807282,-0.812,0.6178,-0.1351,42.71,14.51,-0.98,
35761,1661619807282,-0.8814,0.5773,0.2526,42.28,-2.41,-0.89,
35762,1661619807282,-0.8213,-0.0579,-0.1835,46.48,-6.81,3.22,
35763,1661619807282,-0.7622,0.1047,-0.3641,47.11,1.91,0.3,
35764,1661619807282,-0.7407,0.2209,-0.2191,45.72,8.93,-0.07,
35765,1661619807282,-0.7603,-0.139,0.004,37.51,3.08,-2.8,
35766,1661619807282,-0.8013,0.0915,-0.3314,31.6,-12.06,-1.53,
35767,1661619807282,-0.791,-0.3695,-0.2489,31.53,-26.0,0.21,
35768,1661619807282,-0.8482,-0.1097,0.1271,32.4,-13.06,-4.17,
35769,1661619807282,-0.7461,-0.0462,-0.1966,28.99,-11.55,-0.71,
35770,1661619807282,-0.9278,-0.1141,0.1217,23.41,-8.0,-8.0,
35771,1661619807282,-0.8008,0.0168,0.2711,20.89,-20.77,-10.29,
35772,1661619807282,-1.0298,-0.4915,-0.3314,27.41,-13.23,-8.73,
35773,1661619807282,-0.8755,0.0788,0.1349,14.71,-6.14,-5.64,
35774,1661619807282,-1.0249,-0.0457,0.1222,13.22,-9.0,-8.37,
35775,1661619807282,-0.9243,-0.6512,-0.1888,14.51,-13.23,-7.45,
35776,1661619807282,-0.919,0.0861,0.1022,11.93,-10.44,-7.54,
35777,1661619807282,-0.9927,-0.2166,0.2902,7.51,-11.2,-7.63,
35778,1661619807282,-1.0308,-0.3524,0.0045,5.01,-8.41,-8.64,
35779,1661619807282,-0.957,-0.389,0.1344,2.41,0.72,-6.54,
35780,1661619807282,-0.9839,-0.3592,0.1671,1.82,-1.05,-9.28,
35781,1661619807282,-1.002,0.0622,0.0236,1.01,4.44,-10.91,
35782,1661619807282,-1.064,-0.7323,0.2316,-2.07,6.73,-10.82,
35783,1661619807282,-1.0259,-0.5257,0.0153,-8.07,-1.31,-13.66,
35784,1661619807282,-1.0967,-0.2757,-0.0052,-7.35,-1.21,-7.63,
35785,1661619807297,-1.209,-0.6366,0.2365,-6.28,-0.72,-8.64,
35786,1661619807297,-1.1773,-0.5033,0.2072,-11.98,-9.93,-10.2,
35787,1661619807297,-1.1104,-0.5008,0.1564,-18.96,-10.53,-6.44,
35788,1661619807297,-1.3491,-0.452,0.443,-17.88,-11.12,-0.43,
35789,1661619807297,-1.1182,-0.1551,0.4899,-17.76,-8.5,-1.62,
35790,1661619807297,-1.2862,-0.3299,0.4992,-18.69,-0.29,-1.99,
35791,1661619807297,-1.1509,0.0348,0.4723,-15.67,1.91,-1.35,
35792,1661619807297,-1.3076,-0.1361,0.6744,-11.99,8.42,-0.52,
35793,1661619807297,-1.104,0.3737,0.2672,-12.68,-3.25,-2.35,
35794,1661619807297,-1.1782,0.1486,0.0485,-7.08,-0.63,0.39,
35795,1661619807297,-1.1885,-0.1405,0.4459,-4.16,12.39,-0.89,
35796,1661619807297,-1.1338,0.3698,0.2155,-4.39,-1.22,2.02,
35797,1661619807297,-0.957,0.4855,-0.1634,-5.38,1.4,4.04,
35798,1661619807297,-1.0943,0.5055,0.4015,-3.67,-0.12,8.05,
35799,1661619807297,-1.0611,0.3727,0.1622,1.31,1.22,8.69,
35800,1661619807297,-1.0498,0.2238,0.007,5.72,2.5,4.95,
35801,1661619807297,-1.1362,0.8781,0.5031,7.53,18.74,3.76,
35802,1661619807297,-1.167,0.6471,0.4825,16.63,16.45,3.4,
35803,1661619807297,-1.0938,0.2526,0.0792,16.63,23.99,2.57,
35804,1661619807297,-1.0581,0.5363,0.2389,15.31,23.56,5.05,
35805,1661619807297,-1.0767,0.6359,0.3458,18.6,19.07,0.03,
35806,1661619807297,-1.0679,0.3971,-0.0702,19.41,10.1,6.04,
35807,1661619807297,-0.9483,0.6051,-0.1029,20.33,6.64,4.86,
35808,1661619807297,-0.8516,0.4484,-0.0062,23.5,3.25,11.97,
35809,1661619807297,-0.9859,0.4557,-0.1737,23.41,-0.98,8.33,
35810,1661619807297,-0.9551,0.444,-0.0961,30.6,0.04,9.32,
35811,1661619807297,-1.1104,0.2101,0.171,32.61,-2.32,12.25,
35812,1661619807297,-0.6973,0.6598,-0.076,32.21,-13.23,6.13,
35813,1661619807297,-0.8233,0.4367,0.3258,36.68,-7.07,7.78,
35814,1661619807297,-0.9116,0.3288,0.4645,35.6,4.1,3.86,
35815,1661619807297,-0.6138,0.5973,-0.4432,37.33,-0.38,6.95,
35816,1661619807297,-0.8374,0.4997,0.0558,37.31,21.19,7.04,
35817,1661619807297,-0.7788,0.5959,-0.0028,41.8,9.18,2.12,
35818,1661619807297,-0.7647,0.3918,-0.3544,41.7,5.2,2.48,
35819,1661619807297,-0.6533,0.2858,-0.3563,37.8,-11.63,3.22,
35820,1661619807313,-0.7266,0.7135,-0.3905,39.4,-18.48,-1.35,
35821,1661619807313,-0.792,0.0817,-0.0419,41.92,-0.29,-1.16,
35822,1661619807313,-0.8135,0.3483,-0.1307,32.43,3.51,-6.09,
35823,1661619807313,-0.7442,0.3727,-0.0614,31.41,0.38,-8.09,
35824,1661619807313,-0.9033,0.1217,0.214,36.61,-4.35,-14.74,
35825,1661619807313,-0.8931,0.1261,0.3424,37.29,-10.19,-10.73,
35826,1661619807313,-0.8374,-0.1908,-0.0018,31.1,6.04,-10.73,
35827,1661619807313,-0.8101,-0.0721,0.0045,24.71,13.99,-9.28,
35828,1661619807313,-0.9063,-0.3358,0.0241,24.72,4.36,-12.2,
35829,1661619807313,-0.9019,-0.5106,-0.2235,19.92,-18.65,-7.63,
35830,1661619807313,-0.9263,-0.1263,-0.2313,13.7,-22.2,-6.72,
35831,1661619807313,-0.9575,-0.641,-0.1171,12.73,-15.26,-2.45,
35832,1661619807313,-0.9668,-0.5018,-0.1356,10.62,-17.05,2.12,
35833,1661619807313,-0.982,-0.3236,0.1486,6.41,-24.14,0.67,
35834,1661619807313,-0.9903,-0.5301,0.0582,1.93,-32.52,-2.89,
35835,1661619807313,-0.8975,-0.5565,0.1705,-0.88,-14.68,-0.98,
35836,1661619807313,-1.0498,-0.5247,0.3405,-3.96,-4.61,-3.99,
35837,1661619807313,-0.9893,-0.2035,-0.0487,-8.68,-8.84,-6.09,
35838,1661619807322,-1.1758,-0.4676,0.3722,-6.36,-3.68,-5.73,
35839,1661619807322,-1.1695,-0.3993,0.3742,-5.78,-5.04,-7.45,
35840,1661619807322,-1.1026,-0.0721,-0.0966,-11.27,-7.07,-11.19,
35841,1661619807322,-1.168,-0.2274,0.3595,-15.2,-0.21,-5.54,
35842,1661619807322,-1.1377,-0.18,0.2741,-14.68,-1.31,-12.29,
35843,1661619807322,-1.1568,-0.1097,0.2189,-13.47,-3.85,-6.9,
35844,1661619807322,-1.2158,0.1022,0.5402,-16.87,-4.44,-12.47,
35845,1661619807322,-1.2324,-0.1844,0.441,-9.58,5.37,-1.16,
35846,1661619807326,-1.2378,-0.1917,0.3468,-12.69,8.16,-6.09,
35847,1661619807326,-1.1646,0.1466,0.4044,-11.78,15.18,-1.44,
35848,1661619807326,-1.2344,-0.1844,0.5367,-13.58,11.46,-1.26,
35849,1661619807326,-1.2139,-0.0995,0.2199,-11.4,1.31,-0.34,
35850,1661619807326,-1.0698,0.0563,0.1276,-10.97,-2.41,1.84,
35851,1661619807326,-1.2476,-0.0404,0.3341,-7.38,-0.89,4.59,
35852,1661619807326,-1.1958,0.0861,0.0675,-7.08,0.81,4.68,
35853,1661619807326,-1.0659,0.0265,0.0397,-4.68,0.38,4.86,
35854,1661619807326,-1.1499,0.2033,0.275,-4.38,1.74,3.67,
35855,1661619807326,-1.0772,0.2565,0.1315,2.9,-6.04,10.97,
35856,1661619807326,-1.2232,0.1974,0.3317,4.7,-2.49,13.15,
35857,1661619807326,-1.104,0.5387,0.5538,6.2,3.34,9.78,
35858,1661619807326,-1.1109,0.5754,0.1412,8.39,-0.89,11.79,
35859,1661619807326,-1.0156,0.403,0.1447,10.42,11.46,12.34,
35860,1661619807326,-1.0708,0.652,0.3234,15.81,17.97,13.88,
35861,1661619807326,-1.0474,0.5422,0.2057,16.01,17.47,13.7,
35862,1661619807326,-1.0137,0.8117,0.0211,19.81,-1.48,7.5,
35863,1661619807326,-0.9326,0.8796,0.1637,21.91,10.62,8.42,
35864,1661619807326,-0.9077,0.6823,0.1295,28.7,9.09,8.51,
35865,1661619807326,-0.8906,0.8888,-0.2479,29.59,11.89,4.13,
35866,1661619807326,-0.7432,0.9567,0.0328,28.89,18.65,5.23,
35867,1661619807326,-0.8526,0.8766,0.1764,30.4,16.02,1.03,
35868,1661619807326,-0.8775,0.6115,-0.1913,37.51,9.76,4.59,
35869,1661619807326,-0.9629,0.487,0.0792,43.18,4.7,5.05,
35870,1661619807326,-0.8418,0.6623,0.194,43.11,-2.49,-1.35,
35871,1661619807326,-0.7105,0.6906,-0.2045,44.21,-5.97,-1.71,
35872,1661619807326,-0.7608,0.0133,-0.2299,38.61,0.55,-1.16,
35873,1661619807326,-0.8198,0.3195,-0.1219,37.69,2.91,2.3,
35874,1661619807326,-0.8218,0.174,-0.1219,40.61,4.18,1.84,
35875,1661619807326,-0.7837,0.0021,-0.1898,41.38,-5.28,4.86,
35876,1661619807326,-0.7813,0.175,-0.3768,37.01,-20.17,3.12,
35877,1661619807326,-0.7945,-0.1195,0.1212,33.92,-19.84,3.86,
35878,1661619807326,-0.9136,0.0714,-0.1063,38.7,-15.95,1.22,
35879,1661619807326,-0.7002,-0.0789,-0.2342,36.91,-9.26,3.58,
35880,1661619807326,-0.7598,0.1579,0.2521,27.01,1.31,2.3,
35881,1661619807342,-0.6856,0.423,0.1696,26.42,-9.6,-2.61,
35882,1661619807342,-0.8618,-0.3543,-0.3177,29.39,-13.58,-1.07,
35883,1661619807342,-0.813,-0.015,0.1403,27.71,0.21,-6.81,
35884,1661619807342,-0.8789,0.3673,-0.1444,24.1,-0.81,-6.63,
35885,1661619807342,-0.9263,-0.4193,-0.097,14.53,-6.47,-4.44,
35886,1661619807342,-0.8989,-0.162,0.2706,16.1,-11.8,-7.36,
35887,1661619807342,-0.8999,-0.0882,-0.0057,18.82,-16.95,-11.83,
35888,1661619807342,-0.9536,0.0329,-0.1224,14.42,-9.34,-11.19,
35889,1661619807342,-1.0664,-0.5995,0.5094,10.3,0.55,-8.27,
35890,1661619807342,-0.9966,-0.2913,0.027,4.72,-2.67,-14.65,
35891,1661619807342,-0.917,0.0207,-0.1639,6.41,-8.33,-8.64,
35892,1661619807342,-1.0362,-0.6649,0.2159,5.4,-2.15,-8.82,
35893,1661619807342,-0.9785,-0.7,0.0597,-0.27,-3.34,-5.91,
35894,1661619807342,-0.9195,-0.4076,-0.3729,-6.48,-7.23,-6.54,
35895,1661619807342,-1.1577,-0.6395,0.1642,-3.16,-10.03,-9.1,
35896,1661619807342,-1.0962,-0.5291,0.0582,-9.79,-19.67,-8.46,
35897,1661619807342,-1.1748,-0.6922,0.2492,-17.56,-16.02,-4.63,
35898,1661619807342,-1.1602,-0.1419,0.32,-19.18,-4.7,-5.45,
35899,1661619807342,-1.0894,-0.2069,0.1769,-12.88,-11.96,-0.89,
35900,1661619807342,-1.293,-0.4452,0.756,-18.09,-2.58,-4.44,
35901,1661619807342,-1.2012,0.1012,0.7047,-16.57,-4.78,-0.34,
35902,1661619807342,-1.2818,-0.4193,0.0802,-14.87,7.74,1.12,
35903,1661619807342,-1.2769,0.1925,0.8004,-14.48,5.71,-2.61,
35904,1661619807342,-1.293,0.2624,0.4049,-13.38,-1.98,-3.62,
35905,1661619807342,-1.1157,0.0563,0.0978,-11.87,-0.38,-1.16,
35906,1661619807342,-1.0689,0.4225,0.2804,-9.85,1.14,-2.52,
35907,1661619807342,-1.1206,0.2677,0.3204,-4.96,2.75,2.76,
35908,1661619807342,-1.1939,0.3888,0.1447,-6.28,-1.31,-0.16,
35909,1661619807342,-1.064,0.5475,0.1808,-5.78,4.18,1.38,
35910,1661619807342,-1.1577,0.1637,0.2731,0.12,4.27,1.75,
35911,1661619807342,-1.1343,0.3854,0.3263,2.34,11.72,0.48,
35912,1661619807342,-0.9966,0.5285,0.1676,5.71,12.72,1.22,
35913,1661619807342,-0.9805,0.2487,0.1256,8.32,13.24,5.76,
35914,1661619807342,-1.1763,0.5226,0.34,10.52,9.69,5.85,
35915,1661619807342,-1.2134,0.3454,0.3883,12.51,10.36,6.86,
35916,1661619807357,-1.1065,0.3185,0.1432,12.91,6.47,5.49,
35917,1661619807357,-1.0308,0.5592,-0.0062,11.54,6.47,5.85,
35918,1661619807357,-1.1992,0.153,0.2413,17.61,9.76,5.76,
35919,1661619807357,-1.126,0.3009,0.2067,20.51,8.67,5.05,
35920,1661619807357,-0.7949,0.7028,0.0665,25.21,8.42,7.69,
35921,1661619807357,-1.0195,0.3161,0.1954,26.19,12.82,6.4,
35922,1661619807357,-0.9282,0.5143,0.0822,26.43,4.77,5.67,
35923,1661619807357,-0.8989,0.5207,0.0519,26.81,0.38,10.69,
35924,1661619807357,-0.8399,0.6535,0.1154,26.11,-10.19,6.31,
35925,1661619807357,-0.9487,0.7516,-0.1986,33.19,-11.03,9.87,
35926,1661619807357,-0.8096,0.1808,0.1041,39.49,7.49,11.61,
35927,1661619807357,-0.6763,1.1398,-0.079,39.6,10.7,4.95,
35928,1661619807357,-0.6934,1.0827,-0.1478,36.82,22.37,8.42,
35929,1661619807357,-0.7446,0.1003,-0.3197,36.82,-8.5,2.02,
35930,1661619807357,-0.6865,0.5631,-0.1337,32.99,-1.39,4.04,
35931,1661619807357,-0.7793,0.8112,0.3292,42.61,-6.81,2.48,
35932,1661619807357,-0.749,0.5436,-0.7728,49.0,-10.7,-5.82,
35933,1661619807357,-0.8452,0.0905,0.2052,44.6,13.41,1.57,
35934,1661619807357,-0.857,-0.0643,0.5524,40.99,17.64,-9.01,
35935,1661619807357,-0.7217,0.443,-0.4178,42.1,-9.93,-4.54,
35936,1661619807357,-0.7764,-0.1312,-0.2606,37.42,-7.66,-5.54,
35937,1661619807357,-0.834,-0.1639,0.4381,32.43,-3.17,-1.53,
35938,1661619807357,-0.8062,-0.0819,-0.6205,30.49,-9.69,-4.99,
35939,1661619807357,-0.8394,-0.4891,-0.0897,26.8,1.4,1.66,
35940,1661619807357,-0.8032,-0.1073,0.1735,21.21,-13.92,-6.63,
35941,1661619807357,-0.8218,-0.2972,-0.1346,22.31,-25.5,0.48,
35942,1661619807357,-0.9893,-0.5155,-0.1952,14.3,-22.37,-2.71,
35943,1661619807357,-0.7285,-0.2235,0.087,12.13,-16.36,2.76,
35944,1661619807357,-1.0425,-0.4603,0.1036,9.72,-11.2,-4.17,
35945,1661619807357,-0.8633,-0.1698,-0.0629,9.22,-21.94,-1.99,
35946,1661619807357,-0.9678,-0.5311,-0.0184,12.93,-11.46,-5.73,
35947,1661619807372,-1.0147,-0.1473,0.4122,0.63,-10.53,-12.1,
35948,1661619807372,-1.0737,-0.3158,-0.0653,-1.08,-11.12,-14.65,
35949,1661619807372,-0.9424,-0.4881,0.0348,-0.76,-9.6,-10.91,
35950,1661619807372,-1.0987,0.0441,0.2325,-3.38,-10.44,-18.39,
35951,1661619807372,-1.1445,-0.4222,0.1906,-7.15,-5.45,-7.63,
35952,1661619807372,-1.0181,-0.1903,0.2174,-6.97,-2.92,-10.46,
35953,1661619807372,-1.0386,-0.1156,0.3688,-6.3,3.25,-4.63,
35954,1661619807372,-1.1953,-0.1781,0.3888,-7.58,1.05,-14.74,
35955,1661619807372,-1.1216,-0.1112,0.3707,-13.78,10.95,-10.55,
35956,1661619807372,-1.1275,-0.4076,0.4088,-15.45,5.87,-5.54,
35957,1661619807372,-1.2114,-0.1331,0.1998,-14.36,-1.91,-7.63,
35958,1661619807372,-1.1968,-0.2962,0.3912,-8.57,4.53,-5.64,
35959,1661619807372,-1.1953,-0.2694,0.152,-13.36,2.33,-3.35,
35960,1661619807372,-1.1851,0.0861,0.1896,-18.28,-3.85,-0.98,
35961,1661619807372,-1.2891,-0.1361,0.4752,-15.99,-8.0,1.48,
35962,1661619807372,-1.3042,-0.2811,0.4264,-11.98,-14.59,3.86,
35963,1661619807372,-1.0449,-0.0291,0.0348,-9.98,-6.38,4.31,
35964,1661619807372,-1.2427,0.1408,0.6134,-9.67,3.77,4.22,
35965,1661619807372,-1.0777,0.1964,0.42,-5.16,0.81,6.04,
35966,1661619807372,-1.2183,0.0441,0.2296,-3.6,9.6,5.76,
35967,1661619807372,-1.1255,0.3908,0.2555,-5.06,7.83,0.76,
35968,1661619807372,-1.1162,0.5143,0.2711,0.61,8.5,7.41,
35969,1661619807372,-1.0913,0.1613,0.4718,5.21,13.41,7.32,
35970,1661619807372,-1.0147,0.5339,0.1774,8.01,0.81,9.5,
35971,1661619807372,-0.9551,0.8219,-0.1312,10.01,7.74,8.88,
35972,1661619807372,-0.9937,0.4684,0.3253,13.8,10.36,6.59,
35973,1661619807384,-1.0586,0.7887,0.233,18.11,15.69,9.41,
35974,1661619807384,-0.9522,0.7917,0.1168,15.73,10.53,7.59,
35975,1661619807384,-0.979,0.8547,0.0939,18.21,9.0,7.23,
35976,1661619807384,-0.9126,0.7985,0.3224,26.9,16.11,4.04,
35977,1661619807384,-0.9234,0.6393,0.0695,30.43,13.91,5.05,
35978,1661619807384,-0.8848,0.9303,-0.0931,31.69,15.44,8.88,
35979,1661619807384,-0.9424,0.5885,-0.0316,34.9,5.8,4.22,
35980,1661619807387,-0.9404,0.3053,0.1154,36.21,11.21,3.86,
35981,1661619807387,-1.063,0.7306,-0.0497,33.4,-2.24,0.3,
35982,1661619807387,-0.8291,0.1701,-0.1429,34.11,2.15,5.31,
35983,1661619807387,-0.8071,0.2795,-0.2015,34.29,-8.0,8.6,
35984,1661619807387,-0.8213,0.3444,-0.055,36.0,-1.74,8.33,
35985,1661619807387,-0.9097,0.1862,-0.0658,39.6,-10.87,11.52,
35986,1661619807390,-0.8672,0.2565,-0.2494,40.5,-0.63,5.67,
35987,1661619807390,-0.7002,0.1022,0.0031,37.6,-3.34,11.88,
35988,1661619807390,-0.813,0.488,0.2072,34.11,7.83,1.66,
35989,1661619807390,-0.707,0.444,-0.2006,39.6,-8.16,3.67,
35990,1661619807390,-0.8316,-0.2284,-0.4144,36.3,-2.41,1.93,
35991,1661619807390,-0.6582,0.4069,0.2994,34.43,-13.06,-0.89,
35992,1661619807390,-0.8574,0.1476,-0.2357,35.6,-16.36,2.67,
35993,1661619807390,-0.75,-0.0252,-0.203,36.1,-13.49,1.22,
35994,1661619807390,-0.835,0.152,0.1056,27.99,1.65,3.49,
35995,1661619807390,-0.8584,0.0802,0.2033,24.11,3.0,-0.89,
35996,1661619807390,-0.8985,0.1808,-0.0873,21.32,0.29,-5.18,
35997,1661619807390,-0.853,-0.0501,0.172,25.0,-7.91,-7.63,
35998,1661619807390,-0.9702,-0.2152,0.0909,22.51,-11.63,-8.0,
35999,1661619807390,-0.8584,0.1173,0.0265,21.99,-4.87,-11.1,
36000,1661619807390,-0.9546,-0.5355,0.1285,19.41,7.49,-10.2,
36001,1661619807390,-0.9121,-0.3294,-0.0472,12.51,1.22,-9.92,
36002,1661619807390,-0.8833,-0.2733,-0.1927,7.1,-15.85,-14.12,
36003,1661619807397,-0.8867,-0.5262,-0.1117,8.72,-8.93,-11.37,
36004,1661619807397,-1.0122,-0.5418,0.0626,2.52,-10.79,-12.84,
36005,1661619807397,-0.9878,-0.784,-0.1346,-5.87,-10.1,-8.27,
36006,1661619807397,-1.0044,-0.4339,-0.0424,-5.28,-20.84,-11.37,
36007,1661619807397,-1.0362,-0.5277,0.2658,-6.57,-15.18,-3.9,
36008,1661619807397,-1.2622,-0.7611,0.2872,-12.88,-16.11,-7.45,
36009,1661619807397,-0.9766,-0.2533,0.193,-14.39,-10.53,-3.53,
36010,1661619807397,-1.3008,-0.3158,0.63,-12.77,-1.91,-1.81,
36011,1661619807397,-1.1968,-0.0916,0.4635,-16.17,-13.58,-2.17,
36012,1661619807397,-1.2305,-0.3831,0.0343,-15.36,-4.7,-0.52,
36013,1661619807397,-1.1577,0.217,0.6784,-14.07,9.52,-0.89,
36014,1661619807397,-1.2393,-0.014,0.1354,-10.68,0.38,1.66,
36015,1661619807397,-1.1631,-0.2459,0.0939,-15.67,0.04,0.3,
36016,1661619807397,-1.1621,0.1584,0.2428,-16.69,-6.81,-3.16,
36017,1661619807397,-1.2114,0.279,0.4508,-12.57,1.22,-2.45,
36018,1661619807397,-1.2647,0.1593,0.3707,-9.87,-0.29,-2.26,
36019,1661619807397,-1.0518,0.3522,0.3634,-10.89,4.01,-2.61,
36020,1661619807397,-1.1734,0.1886,0.2531,-9.78,1.05,-3.62,
36021,1661619807397,-1.1084,0.3649,0.2843,-5.48,15.52,0.76,
36022,1661619807397,-1.1221,0.2355,0.3229,1.01,12.72,-2.8,
36023,1661619807397,-1.0581,0.1105,0.0309,-1.26,14.59,-0.71,
36024,1661619807397,-1.1475,0.465,0.1168,-1.46,2.15,-4.35,
36025,1661619807397,-1.1582,0.0924,0.2667,6.4,4.77,3.22,
36026,1661619807397,-1.1465,0.1379,0.0802,8.64,-5.71,4.13,
36027,1661619807397,-1.0288,0.4928,-0.0365,9.22,-0.21,0.76,
36028,1661619807397,-1.1421,0.1388,0.3722,11.29,3.43,12.25,
36029,1661619807397,-1.2178,0.175,0.2916,14.12,4.27,14.8,
36030,1661619807397,-0.9639,0.4035,0.0939,13.29,0.29,8.97,
36031,1661619807397,-1.2666,0.7179,0.4459,13.92,-1.39,13.97,
36032,1661619807397,-1.1016,0.6935,0.3976,21.73,-0.72,11.42,
36033,1661619807397,-1.0352,0.0251,-0.1371,29.79,0.98,13.51,
36034,1661619807397,-0.957,0.4753,-0.0702,28.31,15.69,9.32,
36035,1661619807397,-0.9429,1.1505,0.2848,24.51,15.61,7.78,
36036,1661619807397,-0.8447,0.6291,0.0631,25.79,16.62,9.15,
36037,1661619807397,-0.688,0.4694,-0.6888,33.8,-1.39,3.22,
36038,1661619807413,-0.7495,0.7741,0.3395,36.29,12.65,5.05,
36039,1661619807413,-0.8184,1.0983,0.3234,40.0,-6.55,-2.52,
36040,1661619807413,-0.8208,0.819,-0.3275,40.29,-0.46,-0.07,
36041,1661619807413,-0.6426,0.0588,-0.2118,37.83,-3.16,-0.25,
36042,1661619807413,-0.8174,0.9777,0.1915,40.59,10.28,-5.73,
36043,1661619807413,-0.8291,0.3468,-0.1488,52.8,4.77,-1.16,
36044,1661619807413,-0.7539,0.1833,-0.2113,45.7,9.26,-5.82,
36045,1661619807413,-0.7017,0.4386,0.0485,39.58,-0.46,-3.35,
36046,1661619807413,-0.9112,-0.0682,-0.1337,43.18,-9.6,-4.81,
36047,1661619807413,-0.8237,-0.0907,-0.4217,45.69,-8.5,-1.62,
36048,1661619807413,-0.7305,-0.0208,0.0328,37.22,1.4,-3.35,
36049,1661619807413,-0.9253,-0.1654,-0.0409,29.22,-17.55,-5.64,
36050,1661619807413,-0.8975,-0.389,-0.432,27.41,-20.34,-4.9,
36051,1661619807413,-0.688,-0.557,0.1759,29.91,-10.19,0.76,
36052,1661619807413,-0.8594,0.2755,0.1437,20.31,-1.56,-5.73,
36053,1661619807413,-0.999,-0.5042,-0.201,18.63,-10.79,3.31,
36054,1661619807413,-0.9321,-0.8245,-0.0233,16.1,-10.79,-2.98,
36055,1661619807413,-0.7393,0.0705,0.3038,14.62,-24.66,-1.35,
36056,1661619807413,-1.0928,-0.245,-0.2001,16.62,-14.25,-2.26,
36057,1661619807413,-0.8682,-0.3333,0.1119,13.02,-7.74,-3.99,
36058,1661619807413,-0.9815,-0.1956,0.0895,5.04,-4.52,-7.08,
36059,1661619807413,-0.9287,-0.1102,-0.2357,1.31,-19.24,-3.35,
36060,1661619807413,-0.957,-0.2039,0.3688,4.02,-4.52,-5.54,
36061,1661619807413,-0.9966,-0.6082,0.4181,4.63,-7.83,-4.26,
36062,1661619807413,-0.9903,-0.2484,-0.1859,-1.66,-14.59,-8.92,
36063,1661619807413,-0.9805,-0.0062,0.0519,-3.29,8.16,-9.1,
36064,1661619807413,-1.1778,-0.6102,0.5787,-3.67,0.55,-3.53,
36065,1661619807413,-1.0239,-0.1473,-0.1512,-7.47,-2.15,-7.36,
36066,1661619807413,-1.1231,-0.4432,0.1998,-12.39,-3.01,-1.9,
36067,1661619807413,-1.1865,-0.347,0.4127,-10.28,0.81,-6.09,
36068,1661619807413,-1.1665,-0.4456,0.0216,-9.58,-5.71,-2.8,
36069,1661619807413,-1.3154,-0.3158,0.5231,-19.68,-0.46,-4.81,
36070,1661619807413,-1.0952,-0.1439,0.2067,-18.19,-5.97,-5.18,
36071,1661619807413,-1.1602,-0.388,0.1359,-18.48,-6.64,-2.26,
36072,1661619807429,-1.312,-0.1488,0.4435,-20.89,-5.28,-1.71,
36073,1661619807429,-1.2617,-0.0003,0.4088,-12.59,-10.03,-0.89,
36074,1661619807429,-1.3096,-0.2464,0.4484,-10.18,-5.54,-4.44,
36075,1661619807429,-1.0523,0.4093,0.3341,-14.05,-5.97,-4.35,
36076,1661619807429,-1.231,0.1354,0.5133,-13.87,1.05,-3.35,
36077,1661619807429,-1.1153,0.2892,0.1657,-3.29,1.31,-0.71,
36078,1661619807429,-1.083,0.1886,0.0577,0.31,1.98,-0.16,
36079,1661619807429,-1.0864,0.3327,0.4479,0.81,11.03,4.86,
36080,1661619807429,-1.1026,0.7887,0.212,0.61,-0.46,1.03,
36081,1661619807429,-1.0547,0.1974,-0.1698,1.71,-0.72,3.86,
36082,1661619807429,-1.21,0.6632,0.5436,5.82,4.27,5.67,
36083,1661619807429,-1.1187,0.9591,0.5826,7.02,6.3,-0.25,
36084,1661619807429,-1.0259,0.4381,-0.0199,15.99,5.8,2.67,
36085,1661619807429,-0.9961,0.6379,0.3927,15.81,22.54,2.12,
36086,1661619807429,-1.0264,0.5602,0.2614,19.61,22.37,0.03,
36087,1661619807429,-1.0825,0.3688,-0.058,19.92,15.27,-2.35,
36088,1661619807429,-1.0987,0.8175,0.3077,23.32,17.21,-6.81,
36089,1661619807429,-1.0025,0.5837,0.2985,26.2,12.14,-3.71,
36090,1661619807429,-0.8853,0.4318,-0.5258,30.52,-0.38,-2.08,
36091,1661619807429,-0.939,0.4162,-0.037,29.51,1.74,1.31,
36092,1661619807429,-0.9439,0.3195,0.3053,31.79,-1.05,1.93,
36093,1661619807429,-0.9893,0.5163,-0.1244,31.89,-3.94,4.68,
36094,1661619807429,-0.6655,0.3649,-0.2865,35.51,-4.18,3.86,
36095,1661619807429,-0.9004,0.133,0.2199,35.59,-2.08,3.03,
36096,1661619807429,-0.9121,0.6442,0.2194,38.0,-4.94,3.58,
36097,1661619807429,-0.7984,0.4362,-0.1913,37.11,-9.0,1.38,
36098,1661619807429,-0.6309,0.5924,-0.183,40.61,6.47,4.95,
36099,1661619807429,-0.7808,0.1794,-0.0619,37.71,10.02,11.88,
36100,1661619807429,-0.7593,0.2165,-0.1102,34.61,2.91,7.41,
36101,1661619807429,-0.6724,0.6364,-0.3319,35.3,-13.58,6.22,
36102,1661619807429,-0.7603,0.2077,0.0104,39.89,-11.12,2.76,
36103,1661619807429,-0.7681,0.1105,-0.2137,44.01,-19.75,4.86,
36104,1661619807444,-0.709,0.2961,-0.2465,37.2,5.54,5.49,
36105,1661619807444,-0.8779,0.2785,0.2994,34.7,-1.56,4.5,
36106,1661619807444,-0.8467,0.2677,-0.3329,30.79,-3.01,1.48,
36107,1661619807444,-0.8838,-0.2772,0.2213,30.41,-1.22,-2.61,
36108,1661619807444,-0.8545,0.0797,0.174,25.33,1.22,0.21,
36109,1661619807444,-0.8955,0.0177,-0.2626,26.8,-12.06,-6.81,
36110,1661619807444,-0.9409,-0.3621,-0.0575,21.53,3.77,-0.25,
36111,1661619807444,-0.8643,-0.222,0.1412,18.42,-0.05,-5.27,
36112,1661619807444,-0.8496,-0.6478,-0.5463,18.51,-8.84,-2.89,
36113,1661619807444,-1.0132,-0.5335,0.173,12.91,-19.5,-7.08,
36114,1661619807444,-0.9307,-0.2977,0.0304,5.92,-28.12,-4.26,
36115,1661619807444,-1.022,-0.6707,-0.4213,3.33,-31.08,-3.9,
36116,1661619807444,-1.0127,-0.4339,0.5929,-1.19,-4.94,-3.71,
36117,1661619807444,-0.8496,-0.4832,0.5919,-0.97,-11.29,-5.54,
36118,1661619807444,-0.9717,-0.6004,-0.2845,-5.16,-13.58,-9.28,
36119,1661619807444,-0.8272,-0.3001,0.1364,-5.57,-12.06,-13.02,
36120,1661619807444,-1.2237,-0.5911,0.5621,-9.78,0.04,-8.64,
36121,1661619807444,-1.1026,-0.1707,0.0724,-10.5,-11.96,-16.03,
36122,1661619807444,-1.2114,-0.2479,0.1847,-11.96,-0.12,-6.63,
36123,1661619807444,-1.2271,-0.0921,0.4889,-12.16,-9.51,-13.57,
36124,1661619807444,-1.1924,-0.14,0.1471,-14.57,-3.17,-6.72,
36125,1661619807444,-1.127,0.0236,0.5128,-11.87,-1.39,-3.9,
36126,1661619807444,-1.2217,0.1359,0.5299,-14.48,9.0,-3.16,
36127,1661619807444,-1.1665,-0.1151,0.4088,-11.79,6.04,-2.52,
36128,1661619807444,-1.2422,-0.0374,0.3151,-17.38,7.4,-1.9,
36129,1661619807444,-1.1685,0.3796,0.6159,-15.07,6.56,-5.45,
36130,1661619807444,-1.2813,-0.0999,0.1779,-9.26,4.18,0.48,
36131,1661619807444,-1.0864,0.0168,0.1466,-5.66,11.29,-0.61,
36132,1661619807444,-1.0874,0.1364,0.2877,-6.39,10.45,-2.35,
36133,1661619807444,-1.1455,0.1628,0.1315,-8.27,-0.21,-3.16,
36134,1661619807458,-1.2027,0.1242,-0.0619,-7.17,-4.27,1.66,
36135,1661619807458,-1.1319,-0.0775,0.4752,-4.48,1.81,6.5,
36136,1661619807458,-1.1372,0.4147,0.0695,-0.76,-4.52,5.85,
36137,1661619807458,-1.1646,0.1364,0.1383,4.53,-1.05,13.15,
36138,1661619807458,-1.1948,0.0251,0.505,6.2,6.39,6.31,
36139,1661619807458,-1.1519,0.5177,0.6242,7.24,2.41,12.43,
36140,1661619807458,-1.1489,0.4162,0.2106,8.39,2.15,10.69,
36141,1661619807458,-0.9307,0.5929,0.3395,11.22,2.24,8.42,
36142,1661619807458,-0.8916,0.6715,0.4166,12.62,12.22,13.33,
36143,1661619807458,-1.0801,0.3883,0.087,16.6,12.05,11.97,
36144,1661619807458,-0.9844,0.7961,-0.0599,23.1,15.01,8.42,
36145,1661619807458,-0.9321,0.6535,0.3317,26.9,26.35,9.87,
36146,1661619807458,-0.7945,1.1017,-0.3358,24.61,9.18,2.39,
36147,1661619807458,-0.8911,0.9933,-0.5931,26.72,2.67,11.42,
36148,1661619807458,-0.896,0.5148,0.3605,31.42,7.66,4.59,
36149,1661619807458,-0.8233,1.0329,-0.1171,29.8,-9.17,7.78,
36150,1661619807458,-0.7871,0.9225,-0.205,36.0,0.98,5.85,
36151,1661619807458,-0.9595,0.4557,0.3497,40.48,9.43,4.04,
36152,1661619807458,-0.8599,0.672,0.1051,43.58,13.58,11.06,
36153,1661619807458,-0.7988,0.4147,-0.2845,48.19,16.88,4.5,
36154,1661619807458,-0.7432,0.4704,-0.035,41.9,14.17,2.02,
36155,1661619807458,-0.8096,0.2301,-0.1639,37.11,-7.14,5.85,
36156,1661619807458,-0.8491,-0.3582,-0.1879,37.98,-4.52,3.12,
36157,1661619807458,-0.7788,0.1286,-0.2528,41.4,-12.56,0.58,
36158,1661619807458,-0.7173,0.1652,-0.4369,42.68,-13.58,1.48,
36159,1661619807458,-0.9029,-0.2992,0.1202,37.91,-12.56,8.24,
36160,1661619807458,-0.8862,0.0588,-0.2318,28.69,-26.43,2.85,
36161,1661619807458,-0.7886,-0.3202,-0.0038,31.6,-14.92,7.5,
36162,1661619807458,-0.8247,0.1764,0.3268,30.72,-4.78,-3.71,
36163,1661619807458,-0.8335,-0.1966,-0.1249,25.1,-9.77,2.67,
36164,1661619807458,-0.8999,-0.4178,0.0275,18.3,-16.95,-1.71,
36165,1661619807458,-0.7578,0.0954,-0.0018,25.81,-12.22,-2.61,
36166,1661619807458,-0.9815,-0.3094,-0.0804,27.1,8.5,-5.73,
36167,1661619807458,-0.9849,0.0299,0.0382,10.91,-12.22,-12.29,
36168,1661619807458,-0.919,-0.2703,-0.1478,8.61,-16.36,-10.2,
36169,1661619807473,-1.0347,-0.3748,0.0861,15.0,-15.85,-12.29,
36170,1661619807473,-0.8184,0.2829,-0.1044,12.5,-10.87,-15.2,
36171,1661619807473,-1.0606,-0.5887,0.4684,6.62,-4.61,-6.54,
36172,1661619807473,-1.0405,-0.346,0.15,4.82,-5.37,-11.56,
36173,1661619807473,-0.9478,-0.3221,0.0338,6.73,0.81,-12.65,
36174,1661619807473,-0.9448,-0.2972,0.3439,-1.07,12.72,-15.57,
36175,1661619807473,-1.0469,-0.2547,0.1793,-4.06,-2.15,-11.1,
36176,1661619807473,-0.9932,-1.0135,-0.2206,-7.57,-4.11,-1.26,
36177,1661619807473,-1.0396,-0.1121,0.0826,-7.09,-7.91,-8.82,
36178,1661619807473,-1.1079,-0.4359,0.0094,-9.99,-10.96,-4.17,
36179,1661619807473,-1.3213,-0.8978,0.0929,-18.78,-14.51,-5.27,
36180,1661619807473,-1.105,-0.118,0.38,-23.27,-15.35,2.67,
36181,1661619807473,-1.3267,-0.4554,0.5099,-17.68,-9.0,0.67,
36182,1661619807473,-1.1206,0.0202,0.5992,-16.48,-2.92,-0.52,
36183,1661619807473,-1.1792,-0.1864,0.2892,-16.77,-7.66,-1.07,
36184,1661619807473,-1.2412,-0.2391,0.4078,-17.38,1.48,0.12,
36185,1661619807473,-1.3555,0.3117,0.7277,-12.07,3.17,-4.26,
36186,1661619807473,-1.2569,-0.035,0.462,-15.67,9.52,3.03,
36187,1661619807473,-1.1275,0.4777,-0.0008,-17.07,-1.39,-2.98,
36188,1661619807473,-1.147,0.1745,0.1549,-6.59,6.22,0.58,
36189,1661619807473,-1.0606,0.2199,0.1969,0.41,-0.46,3.12,
36190,1661619807473,-1.086,0.6447,-0.0057,-0.18,-0.12,-0.25,
36191,1661619807473,-1.0469,0.4743,0.0201,-4.99,-2.75,5.05,
36192,1661619807473,-1.211,0.2238,0.5367,-3.98,5.97,-0.34,
36193,1661619807473,-1.0415,0.6188,0.3527,-3.1,10.53,2.76,
36194,1661619807473,-1.065,0.5324,-0.0145,5.72,10.79,-1.53,
36195,1661619807473,-1.0957,0.6701,0.3317,9.81,21.27,-0.43,
36196,1661619807473,-1.1807,0.4132,0.7101,16.62,21.94,-1.35,
36197,1661619807473,-1.0928,0.2428,-0.0233,17.29,7.83,-1.44,
36198,1661619807473,-1.0884,0.6833,0.0626,15.81,6.47,-2.45,
36199,1661619807473,-1.1309,0.2482,0.4992,20.19,16.02,3.49,
36200,1661619807473,-1.1421,0.2839,0.1603,20.1,7.49,11.15,
36201,1661619807473,-0.8994,0.6281,-0.4164,19.99,6.13,7.78,
36202,1661619807473,-0.9385,0.3483,0.1515,23.61,6.39,6.68,
36203,1661619807489,-0.9976,0.4611,0.192,28.6,4.18,11.79,
36204,1661619807489,-1.0425,0.2492,-0.0868,29.7,-7.57,10.05,
36205,1661619807489,-0.8736,0.5353,-0.0199,31.01,-8.16,9.87,
36206,1661619807489,-0.6475,0.8986,0.5026,34.3,10.02,9.15,
36207,1661619807489,-0.8814,0.2653,-0.1039,40.61,17.71,5.49,
36208,1661619807489,-0.5601,0.5817,-0.5961,34.7,9.52,5.14,
36209,1661619807489,-0.6758,0.7453,0.0729,35.78,8.59,1.93,
36210,1661619807489,-0.9502,0.5964,0.465,36.3,-14.42,3.03,
36211,1661619807489,-0.729,0.3415,-1.0555,37.71,-31.25,-1.53,
36212,1661619807489,-0.732,0.4333,0.3868,39.78,18.65,4.13,
36213,1661619807489,-0.8477,0.5978,-0.2206,38.81,7.23,-1.35,
36214,1661619807489,-0.6265,0.1691,-0.5008,40.48,12.14,-4.54,
36215,1661619807489,-0.7012,0.1271,0.2521,38.9,11.96,-11.46,
36216,1661619807489,-0.7427,0.6422,0.2667,41.12,-11.72,-18.12,
36217,1661619807489,-0.8154,-0.1439,-0.7137,39.29,-13.49,-2.8,
36218,1661619807489,-0.9785,0.0168,0.7106,34.4,20.77,-13.66,
36219,1661619807489,-0.9278,0.0353,0.0582,30.72,6.73,-6.72,
36220,1661619807489,-0.7363,-0.4486,-0.8856,31.8,-2.92,-14.56,
36221,1661619807489,-0.7642,-0.2181,0.3175,28.49,-10.03,-5.09,
36222,1661619807489,-0.9004,-0.5921,-0.1005,18.83,-21.53,-5.91,
36223,1661619807489,-0.9282,-0.3597,-0.4261,10.03,-16.54,5.49,
36224,1661619807489,-0.6929,-0.5892,0.1515,11.22,-9.69,0.3,
36225,1661619807489,-0.8726,-0.7152,0.0997,8.0,-20.43,2.02,
36226,1661619807489,-0.9981,-0.2396,-0.1517,6.5,-25.93,0.76,
36227,1661619807489,-1.0288,-0.5008,0.0812,3.33,-22.71,5.49,
36228,1661619807489,-0.8794,-0.2767,0.1984,1.62,-15.95,-0.16,
36229,1661619807489,-1.1465,-0.3949,-0.0116,0.34,-14.76,2.39,
36230,1661619807489,-0.9737,-0.5799,0.3546,-2.87,-0.05,-0.34,
36231,1661619807489,-0.9175,-0.2342,0.3385,-7.69,-9.69,-2.26,
36232,1661619807489,-1.0987,-0.2357,0.0319,-11.18,-10.36,-7.27,
36233,1661619807489,-1.1221,-0.2376,0.0255,-11.99,-9.86,-9.92,
36234,1661619807489,-1.0889,-0.1331,0.5748,-8.08,8.07,-8.46,
36235,1661619807489,-1.1782,-0.285,0.1002,-10.77,-4.11,-8.09,
36236,1661619807489,-1.1846,0.0519,0.1012,-13.27,-0.12,-10.82,
36237,1661619807505,-1.229,-0.2376,1.0084,-13.06,6.73,-11.83,
36238,1661619807505,-1.065,-0.0745,-0.1356,-13.78,-10.87,-12.2,
36239,1661619807505,-1.1426,-0.1361,0.2692,-13.76,9.6,-6.09,
36240,1661619807505,-1.2114,-0.1239,0.6388,-11.79,15.27,-8.46,
36241,1661619807505,-1.2017,-0.0413,-0.0145,-12.68,-4.78,-3.99,
36242,1661619807505,-1.2998,-0.1493,0.422,-13.06,-4.35,-3.35,
36243,1661619807505,-1.2837,0.0002,0.5314,-14.68,-4.11,4.68,
36244,1661619807505,-1.0327,-0.0218,0.0792,-10.28,-4.61,1.57,
36245,1661619807505,-1.1987,0.0036,0.1759,-10.88,-0.55,1.84,
36246,1661619807505,-1.0845,0.2404,0.3488,-5.87,-7.48,4.13,
36247,1661619807505,-1.232,0.0348,0.3219,-3.69,-4.7,3.22,
36248,1661619807505,-1.1172,0.5026,0.257,-1.89,-5.45,5.58,
36249,1661619807505,-1.1279,0.5202,0.1837,2.72,-5.8,5.14,
36250,1661619807505,-1.1909,0.3048,0.6364,4.82,10.95,3.67,
36251,1661619807505,-1.0474,0.6247,0.0939,10.21,3.08,7.69,
36252,1661619807505,-1.0532,0.5822,-0.0619,10.32,13.99,8.05,
36253,1661619807505,-0.9849,0.6593,0.5299,10.42,7.23,10.69,
36254,1661619807505,-1.0615,0.776,0.0455,14.21,3.94,6.86,
36255,1661619807505,-1.0069,0.5295,0.1056,17.61,4.1,11.42,
36256,1661619807505,-1.1113,1.027,0.4718,20.4,10.62,8.78,
36257,1661619807505,-0.8589,1.0299,0.2633,25.82,11.46,4.95,
36258,1661619807505,-0.9077,0.613,-0.1556,30.9,13.49,4.04,
36259,1661619807505,-0.9063,0.9245,0.213,32.5,14.85,4.13,
36260,1661619807505,-0.9907,0.7096,0.0802,34.81,10.95,3.12,
36261,1661619807505,-0.9341,0.6193,-0.0819,37.72,8.42,-1.62,
36262,1661619807505,-0.9268,0.6066,-0.0526,38.32,5.37,1.03,
36263,1661619807505,-0.8662,0.402,-0.0853,38.1,3.68,-3.9,
36264,1661619807505,-0.8638,0.6061,-0.1302,38.12,0.47,-2.45,
36265,1661619807505,-0.7998,0.1637,-0.1517,45.32,3.34,-0.25,
36266,1661619807505,-0.853,0.1535,-0.329,41.2,-2.58,0.21,
36267,1661619807505,-0.7984,0.4079,-0.2811,41.4,-5.63,-0.43,
36268,1661619807505,-0.6792,-0.0555,0.0045,40.61,-5.71,1.84,
36269,1661619807505,-0.8711,0.1808,-0.12,38.41,-14.76,4.04,
36270,1661619807505,-0.832,-0.0013,0.0465,34.5,-9.69,3.31,
36271,1661619807505,-0.8623,-0.1317,-0.1825,36.9,-11.55,1.03,
36272,1661619807505,-0.5947,0.3117,0.07,36.62,-0.29,-1.9,
36273,1661619807521,-0.7759,-0.0243,0.0905,36.09,2.24,4.22,
36274,1661619807521,-0.772,0.0846,-0.1757,29.51,-1.05,-3.25,
36275,1661619807521,-0.7593,-0.18,-0.2626,32.52,-0.21,-4.35,
36276,1661619807521,-0.9805,-0.1195,0.4425,24.02,-10.1,-6.9,
36277,1661619807521,-0.9258,0.5641,-0.4491,21.7,-33.88,-14.12,
36278,1661619807521,-0.9429,-0.4798,0.0358,28.31,0.47,-7.27,
36279,1661619807521,-1.0117,-0.2352,0.3248,25.19,0.64,-13.57,
36280,1661619807521,-0.8223,0.0148,-0.2582,15.29,-3.34,-16.85,
36281,1661619807521,-0.979,-0.1766,0.2325,11.11,-13.83,-14.84,
36282,1661619807521,-0.9199,-0.2713,0.3165,10.12,-0.81,-11.92,
36283,1661619807521,-0.9429,-0.8294,-0.0751,8.32,1.81,-7.54,
36284,1661619807521,-0.9238,-0.286,-0.1034,5.51,1.31,-16.67,
36285,1661619807521,-0.9868,-0.4608,0.0582,3.8,-11.63,-12.2,
36286,1661619807521,-1.0484,-0.953,-0.1385,-2.9,-17.98,-11.65,
36287,1661619807521,-0.9551,-0.2093,-0.059,-10.07,-14.42,-3.25,
36288,1661619807521,-1.1216,-0.764,0.2013,-10.57,-11.29,-8.46,
36289,1661619807521,-1.0923,-0.5555,0.1598,-11.38,-19.15,-3.71,
36290,1661619807521,-1.0952,-0.4876,0.3283,-13.58,-20.6,-5.73,
36291,1661619807521,-1.2857,-0.2865,0.5934,-19.36,-7.66,-4.9,
36292,1661619807521,-1.1367,-0.1034,0.2809,-14.97,1.4,1.93,
36293,1661619807521,-1.2041,-0.2943,0.7618,-16.77,13.91,-1.53,
36294,1661619807521,-1.1236,0.049,0.2784,-18.87,-2.92,-3.25,
36295,1661619807521,-1.2759,-0.2205,-0.0253,-13.97,-10.53,0.21,
36296,1661619807521,-1.147,-0.057,0.549,-12.77,3.6,-3.44,
36297,1661619807521,-1.19,0.5851,0.2975,-17.77,-0.98,-3.62,
36298,1661619807521,-1.1382,-0.1707,-0.0355,-13.47,-0.98,-0.71,
36299,1661619807521,-1.1948,0.297,0.4791,-9.29,4.18,1.22,
36300,1661619807521,-1.1509,0.4562,0.4332,-5.69,2.58,-1.71,
36301,1661619807521,-1.1001,0.3547,0.0231,-6.79,1.65,-1.07,
36302,1661619807521,-1.1099,0.4093,0.2496,-6.88,11.21,-1.35,
36303,1661619807521,-1.1821,0.1398,0.4054,-4.97,9.86,-3.16,
36304,1661619807536,-1.127,0.5959,0.132,2.43,10.28,-5.73,
36305,1661619807536,-1.0869,0.3669,0.0978,9.22,13.06,-4.44,
36306,1661619807536,-1.1289,0.0988,0.1378,11.8,14.42,-0.98,
36307,1661619807536,-1.1553,0.3918,0.1325,8.62,5.46,-2.52,
36308,1661619807536,-1.084,0.4479,0.1471,9.52,0.64,3.86,
36309,1661619807536,-1.1597,0.3312,0.11,10.39,-7.14,2.48,
36310,1661619807536,-1.1006,0.4504,0.067,14.19,-7.31,6.59,
36311,1661619807536,-1.2183,0.2067,0.4025,16.62,5.03,11.88,
36312,1661619807536,-1.0122,0.5724,0.4469,19.61,11.79,3.4,
36313,1661619807536,-0.8379,0.7209,0.2413,23.81,22.7,9.23,
36314,1661619807536,-1.0904,0.3517,-0.0492,24.1,10.53,6.13,
36315,1661619807536,-0.9517,0.569,0.0006,23.21,2.15,6.22,
36316,1661619807536,-1.0069,0.7751,0.4913,27.82,4.1,3.95,
36317,1661619807536,-0.8169,0.8273,-0.3607,37.6,-6.14,-2.98,
36318,1661619807536,-0.7114,0.4753,-0.7552,41.9,-12.99,4.86,
36319,1661619807536,-0.8862,0.6657,0.7853,34.52,22.37,2.48,
36320,1661619807536,-0.8091,1.0671,0.1984,35.6,-4.35,-2.71,
36321,1661619807536,-0.6333,0.756,-1.0179,43.32,2.58,-3.53,
36322,1661619807536,-0.8194,0.297,0.4708,44.39,4.01,-2.89,
36323,1661619807536,-0.938,0.6359,0.109,44.21,-1.22,-10.73,
36324,1661619807536,-0.7486,0.5138,-0.4471,41.51,-6.64,-9.92,
36325,1661619807536,-0.8526,0.4723,0.3942,43.49,4.61,-10.73,
36326,1661619807536,-0.8086,0.1017,0.2745,45.49,4.27,-7.91,
36327,1661619807536,-0.793,-0.1038,-0.5985,43.9,6.13,-8.37,
36328,1661619807536,-0.7442,0.4464,0.088,44.82,14.92,-8.18,
36329,1661619807536,-0.855,-0.412,-0.0145,35.98,-4.01,-5.73,
36330,1661619807536,-0.8218,-0.2821,-0.4603,21.3,-21.94,-11.65,
36331,1661619807536,-0.689,-0.1038,0.1378,28.81,-9.93,-3.16,
36332,1661619807536,-0.8677,-0.5125,-0.2181,32.89,-9.93,-4.44,
36333,1661619807536,-0.7573,-0.2147,-0.1444,20.3,-9.69,-5.09,
36334,1661619807536,-0.9038,-0.3236,0.299,14.19,-15.18,-6.44,
36335,1661619807536,-0.999,-0.3807,0.1784,15.83,-30.24,-8.64,
36336,1661619807536,-0.8487,-0.3704,-0.1893,14.19,-13.49,-4.26,
36337,1661619807536,-0.8848,-0.2992,0.3512,6.12,3.17,-3.53,
36338,1661619807536,-0.8091,-0.1605,-0.2225,7.72,-5.97,-5.18,
36339,1661619807536,-1.0235,-0.662,0.0709,10.39,-1.05,-1.07,
36340,1661619807552,-0.9463,-0.055,0.2365,6.3,-18.05,-7.63,
36341,1661619807552,-1.0098,-0.3763,-0.2704,-1.48,-24.57,-3.71,
36342,1661619807552,-1.1118,-0.3914,0.192,-6.06,-3.77,-6.9,
36343,1661619807552,-1.0357,-0.162,0.4303,-4.16,3.77,-4.81,
36344,1661619807552,-1.0298,-0.3475,0.1935,-7.66,4.44,-6.09,
36345,1661619807552,-1.023,-0.1986,-0.1058,-8.98,-10.1,-11.1,
36346,1661619807552,-1.0396,-0.2718,0.4518,-7.6,-1.48,-4.99,
36347,1661619807552,-1.169,-0.3338,0.4137,-10.97,3.17,-6.09,
36348,1661619807552,-1.1641,-0.1532,0.0441,-14.57,10.53,-7.63,
36349,1661619807552,-1.1494,-0.4578,0.4889,-15.16,13.15,-4.26,
36350,1661619807552,-1.2422,-0.2025,0.275,-16.46,-1.91,-6.9,
36351,1661619807552,-1.0982,-0.2718,-0.0365,-13.27,-10.03,-5.73,
36352,1661619807552,-1.2383,-0.2552,0.4122,-15.58,0.38,-9.56,
36353,1661619807552,-1.1626,-0.0609,0.3673,-19.38,-5.04,-4.99,
36354,1661619807552,-1.2808,-0.2362,0.1832,-21.47,-11.46,-6.81,
36355,1661619807552,-1.2827,0.0207,0.5602,-16.17,-8.33,-1.53,
36356,1661619807552,-1.0694,0.1979,0.1915,-12.17,-6.73,-0.25,
36357,1661619807552,-1.2041,0.2297,0.4332,-7.87,2.67,-3.62,
36358,1661619807552,-1.2041,0.2941,0.2716,-2.77,3.08,-0.34,
36359,1661619807552,-1.0967,0.0797,0.194,1.51,14.08,3.58,
36360,1661619807552,-1.0781,0.5016,0.1964,0.12,8.42,2.94,
36361,1661619807552,-1.1455,0.6364,0.2067,0.7,12.82,0.48,
36362,1661619807552,-1.0547,0.3664,0.2286,4.02,13.75,9.59,
36363,1661619807552,-1.0918,0.6486,0.0236,5.53,6.9,3.22,
36364,1661619807552,-1.0122,0.8297,0.1559,8.32,6.3,0.12,
36365,1661619807552,-1.0718,0.6066,0.3785,13.61,8.83,-2.08,
36366,1661619807552,-1.0571,0.7829,0.3478,16.63,11.03,-2.98,
36367,1661619807552,-1.0332,0.6867,0.2775,20.71,4.18,-1.07,
36368,1661619807552,-0.9693,0.8371,0.2658,21.59,9.18,1.38,
36369,1661619807552,-0.9854,0.7257,0.3112,29.39,20.09,3.95,
36370,1661619807552,-0.895,0.4958,-0.078,30.41,23.13,4.77,
36371,1661619807552,-0.8823,0.7692,-0.0668,31.6,20.93,-1.44,
36372,1661619807552,-1.0191,0.6296,0.0797,35.49,8.07,2.39,
36373,1661619807552,-1.0801,0.2287,-0.0082,34.2,-8.93,6.68,
36374,1661619807568,-0.9404,0.611,-0.2513,31.8,-14.25,8.51,
36375,1661619807568,-0.8291,0.2878,0.0553,35.02,-10.44,9.15,
36376,1661619807568,-0.895,0.2077,0.0973,40.19,-6.73,9.15,
36377,1661619807568,-0.7627,0.2331,0.174,37.33,1.91,7.87,
36378,1661619807568,-0.8443,0.3742,0.0177,38.52,2.15,-0.25,
36379,1661619807568,-0.6875,0.488,-0.2142,41.29,0.72,3.22,
36380,1661619807568,-0.8726,0.154,0.3742,40.29,6.56,4.22,
36381,1661619807568,-0.9282,0.1545,0.339,37.92,-2.67,-2.45,
36382,1661619807568,-0.6319,0.216,-0.8495,41.19,-10.03,5.67,
36383,1661619807568,-0.7412,0.172,0.0475,41.72,15.18,-3.35,
36384,1661619807568,-0.7739,0.446,0.1056,39.02,-3.17,-0.43,
36385,1661619807568,-0.7744,-0.0506,-0.7943,35.62,-23.39,-0.71,
36386,1661619807568,-0.9717,0.1125,0.3248,31.01,-6.64,2.67,
36387,1661619807568,-0.834,0.4191,0.1354,32.43,-0.55,-2.45,
36388,1661619807568,-0.918,0.0866,-0.2362,28.69,2.41,-1.07,
36389,1661619807568,-0.9273,-0.0282,0.2023,27.39,6.97,-5.27,
36390,1661619807568,-0.8916,-0.1756,0.2223,27.32,1.05,-3.53,
36391,1661619807568,-0.8277,-0.12,-0.1083,26.29,1.05,-7.08,
36392,1661619807568,-0.9404,-0.2728,-0.0726,19.01,-4.27,-10.11,
36393,1661619807568,-0.8682,-0.7249,-0.1654,12.3,-5.97,-12.38,
36394,1661619807568,-0.9644,-0.3753,-0.3334,9.8,-12.06,-11.74,
36395,1661619807568,-0.9946,-0.6248,-0.1141,11.29,-14.08,-12.38,
36396,1661619807568,-1.0176,-0.7313,-0.0643,-2.29,-25.24,-11.65,
36397,1661619807568,-0.771,-0.659,-0.121,-2.7,-19.58,-7.36,
36398,1661619807568,-0.9795,-0.7782,0.1002,-5.89,-8.5,-7.63,
36399,1661619807568,-0.9536,-0.5301,0.2799,-9.47,-7.23,-10.11,
36400,1661619807568,-1.0484,-0.4818,0.1871,-14.05,-16.54,-6.9,
36401,1661619807568,-1.1328,-0.5252,0.3678,-12.28,-11.55,-7.91,
36402,1661619807568,-1.0786,-0.2147,0.2697,-10.97,-10.62,-5.27,
36403,1661619807568,-1.1665,-0.2586,0.38,-17.27,2.15,-0.89,
36404,1661619807568,-1.1997,-0.0643,0.2081,-15.88,-6.81,0.03,
36405,1661619807568,-1.1509,-0.3245,0.4298,-13.68,3.77,2.57,
36406,1661619807583,-1.1411,0.3249,0.3351,-14.97,-9.17,-4.54,
36407,1661619807583,-1.1875,0.088,0.3151,-13.29,1.81,-3.99,
36408,1661619807583,-1.1489,-0.3221,0.4054,-18.17,1.98,0.21,
36409,1661619807583,-1.1626,0.0807,0.4269,-16.95,11.89,-4.81,
36410,1661619807583,-1.1338,0.4137,0.5128,-10.37,7.14,-3.07,
36411,1661619807583,-1.2027,0.2067,0.1686,-13.17,4.01,-3.8,
36412,1661619807583,-1.044,0.1501,0.194,-14.37,2.15,-1.44,
36413,1661619807583,-1.0645,0.1486,0.3698,-6.77,10.36,-3.9,
36414,1661619807583,-1.0679,0.3009,0.1979,-2.48,3.94,2.57,
36415,1661619807583,-1.1519,0.0885,-0.0062,-0.78,9.76,3.12,
36416,1661619807583,-1.1011,0.151,0.2418,-7.29,4.44,2.67,
36417,1661619807583,-1.1699,0.5417,-0.0082,-4.87,-3.25,4.04,
36418,1661619807583,-1.166,0.1711,0.1588,4.32,-4.35,4.68,
36419,1661619807583,-1.2866,0.1027,0.4083,9.72,-6.55,8.69,
36420,1661619807583,-1.0454,0.5534,0.2775,8.64,-5.37,6.59,
36421,1661619807583,-1.2588,0.2375,0.3956,8.73,6.56,9.06,
36422,1661619807583,-1.1026,0.4435,0.42,12.19,12.31,6.22,
36423,1661619807583,-0.9165,0.7135,0.3092,13.92,11.79,8.05,
36424,1661619807583,-1.1631,0.631,0.3141,18.13,11.46,4.41,
36425,1661619807583,-1.0073,0.4191,-0.0809,27.9,1.98,12.71,
36426,1661619807583,-1.0,0.5475,0.6075,27.91,17.47,6.68,
36427,1661619807583,-0.8687,1.0778,0.32,27.41,-3.94,3.95,
36428,1661619807583,-0.853,1.0607,-0.7059,28.0,-2.24,5.14,
36429,1661619807583,-0.8941,0.2858,0.2594,29.6,10.95,13.06,
36430,1661619807583,-0.8535,1.0573,-0.1322,32.12,9.6,8.69,
36431,1661619807583,-0.7227,1.1789,-0.4564,41.69,8.33,8.42,
36432,1661619807583,-0.9492,0.4972,0.132,41.61,11.21,5.49,
36433,1661619807583,-0.8301,0.7253,0.276,43.09,0.98,1.22,
36434,1661619807583,-0.8013,0.5119,-0.2299,39.4,-0.63,0.67,
36435,1661619807583,-0.7471,0.7096,-0.2225,47.3,-0.89,-3.07,
36436,1661619807583,-0.7363,0.32,-0.0712,51.0,17.64,-0.16,
36437,1661619807583,-0.7754,-0.1742,0.0372,43.9,15.35,-1.44,
36438,1661619807583,-0.7896,0.3424,-0.5091,37.1,-7.48,-5.82,
36439,1661619807583,-0.6934,-0.0384,-0.1488,41.31,-12.06,-3.16,
36440,1661619807583,-0.8726,-0.0252,0.087,36.23,-14.08,-5.36,
36441,1661619807583,-0.7969,-0.2874,-0.5301,35.01,-12.65,-1.62,
36442,1661619807599,-0.9053,-0.4793,0.1871,30.23,-6.47,-0.43,
36443,1661619807599,-0.7544,0.2633,0.316,31.6,-13.06,-4.35,
36444,1661619807599,-0.7661,-0.2845,-0.3851,30.7,-9.34,0.12,
36445,1661619807599,-0.9136,-0.285,-0.1371,23.91,5.63,-2.26,
36446,1661619807599,-0.8413,-0.2738,0.2711,17.9,-3.68,-2.89,
36447,1661619807599,-0.8721,-0.3661,-0.0819,15.9,-19.5,-8.64,
36448,1661619807599,-0.7695,0.0998,-0.3143,21.79,-14.51,-1.81,
36449,1661619807599,-0.8814,-0.6497,0.1315,13.7,-4.61,-0.61,
36450,1661619807599,-1.0254,-0.2572,-0.0668,4.41,-20.34,-2.45,
36451,1661619807599,-0.9361,0.027,-0.0966,8.1,-16.36,-6.0,
36452,1661619807599,-1.0816,-0.4588,0.4855,8.82,-8.16,-5.09,
36453,1661619807599,-0.9854,-0.3411,0.3224,-1.28,-0.55,-7.18,
36454,1661619807599,-0.9829,-0.4696,0.1188,-3.28,-5.88,-9.65,
36455,1661619807599,-0.8604,-0.1263,0.07,2.72,-4.78,-14.2,
36456,1661619807599,-1.0606,-0.3656,0.1354,3.5,-0.72,-10.91,
36457,1661619807599,-1.1797,-0.8109,0.069,-3.78,0.55,-4.08,
36458,1661619807599,-1.0904,-0.1517,-0.0795,-11.58,-1.91,-9.47,
36459,1661619807599,-1.1397,-0.4525,0.0929,-13.99,-9.69,-10.55,
36460,1661619807599,-1.1782,-0.4998,0.193,-14.07,-8.93,-4.99,
36461,1661619807599,-1.0044,-0.5384,0.3287,-18.95,-6.97,-3.25,
36462,1661619807599,-1.2847,-0.3245,0.3756,-23.45,-7.31,-2.89,
36463,1661619807599,-1.2339,-0.0282,0.4987,-17.97,-4.61,-4.44,
36464,1661619807599,-1.27,-0.2913,0.7369,-18.77,2.33,5.05,
36465,1661619807599,-1.1885,-0.1698,0.486,-20.95,-2.75,-1.16,
36466,1661619807599,-1.2237,0.1881,0.1329,-15.18,-7.07,2.3,
36467,1661619807599,-1.2329,0.133,0.5988,-12.17,6.3,1.93,
36468,1661619807613,-1.0581,0.3879,-0.0043,-10.79,-2.41,4.5,
36469,1661619807613,-1.124,0.0163,0.153,-8.68,1.14,3.31,
36470,1661619807613,-1.1909,0.2326,0.3356,-5.06,-3.34,4.04,
36471,1661619807613,-1.1182,0.6125,0.0949,-2.96,-1.31,1.03,
36472,1661619807613,-1.002,0.4049,0.0802,-3.17,0.88,-0.07,
36473,1661619807613,-1.1543,0.611,0.2184,-1.08,4.36,1.03,
36474,1661619807613,-1.1138,0.5207,0.3185,3.53,3.25,3.22,
36475,1661619807613,-1.1153,0.5109,0.4117,4.43,7.83,-0.61,
36476,1661619807613,-1.0152,0.9718,0.3004,6.3,8.76,1.84,
36477,1661619807613,-1.1387,0.3322,0.2706,12.21,7.4,0.39,
36478,1661619807613,-1.1734,0.3234,0.4093,15.11,13.15,2.02,
36479,1661619807613,-1.0435,0.7365,0.2809,20.22,12.65,1.48,
36480,1661619807613,-1.062,0.5631,-0.0599,23.59,13.91,4.31,
36481,1661619807613,-1.0508,0.6105,0.069,24.51,19.67,8.78,
36482,1661619807618,-1.0005,0.5563,0.0563,25.5,14.08,3.31,
36483,1661619807618,-0.9195,0.3366,-0.0643,23.2,3.34,3.95,
36484,1661619807618,-1.0181,0.7155,-0.1205,26.51,-8.67,5.4,
36485,1661619807618,-1.0357,0.1559,0.089,34.5,-7.57,5.14,
36486,1661619807618,-0.8872,0.466,0.0319,33.51,-1.91,4.04,
36487,1661619807618,-0.7295,0.6515,-0.0697,34.62,-5.8,1.84,
36488,1661619807618,-0.9136,0.4186,0.3043,37.4,11.12,0.58,
36489,1661619807618,-0.8413,0.4381,0.1588,38.49,7.32,3.76,
36490,1661619807618,-0.898,0.4025,-0.3197,39.81,3.43,5.58,
36491,1661619807618,-0.749,0.5646,0.0983,39.6,5.54,1.03,
36492,1661619807618,-0.7842,0.6315,0.0968,43.92,-6.73,-1.26,
36493,1661619807618,-0.6729,0.0119,-0.3207,41.34,0.66,2.3,
36494,1661619807618,-0.6079,0.6891,-0.2987,36.09,-4.87,-5.18,
36495,1661619807618,-0.7241,0.4948,-0.0902,42.89,-4.01,-3.44,
36496,1661619807618,-0.8755,0.0339,0.0475,41.7,-2.67,-6.37,
36497,1661619807618,-0.8291,0.3258,-0.0482,37.31,-0.38,-10.2,
36498,1661619807618,-0.7417,0.36,-0.1302,36.5,-4.44,-7.63,
36499,1661619807618,-0.8814,0.132,0.2321,39.02,3.34,-11.1,
36500,1661619807618,-0.8555,-0.2655,0.1202,39.31,6.8,-5.82,
36501,1661619807618,-0.833,-0.1805,-0.0873,35.33,12.39,-10.55,
36502,1661619807618,-0.918,-0.0409,0.1051,21.2,1.57,-9.74,
36503,1661619807618,-0.898,-0.7406,-0.038,25.52,-3.42,-6.99,
36504,1661619807618,-0.8423,-0.6297,-0.1805,18.5,-5.97,-8.55,
36505,1661619807618,-0.9234,-0.1463,-0.267,13.92,-18.65,-9.56,
36506,1661619807618,-1.0142,-0.8592,-0.1288,6.62,-26.0,3.86,
36507,1661619807618,-0.9522,-0.431,0.0455,11.13,-14.08,-0.16,
36508,1661619807618,-0.9873,-0.3597,-0.1166,8.2,-10.27,3.22,
36509,1661619807618,-0.959,-0.6829,0.1066,-1.58,-14.68,-3.99,
36510,1661619807618,-0.898,-0.5247,0.4308,-6.59,-18.05,-1.71,
36511,1661619807618,-0.9458,-0.408,-0.0233,-2.76,-10.53,-4.44,
36512,1661619807618,-0.9473,-0.3939,-0.0516,-3.48,0.29,-2.71,
36513,1661619807618,-1.0645,-0.5399,0.63,-8.18,3.0,-3.16,
36514,1661619807618,-1.1592,-0.221,0.3004,-11.38,-18.4,-6.81,
36515,1661619807618,-1.1333,0.0368,-0.1415,-8.37,-12.22,-8.0,
36516,1661619807634,-1.1358,-0.4393,0.3912,-12.98,-1.05,-9.65,
36517,1661619807634,-1.0928,-0.0311,0.3073,-16.86,3.84,-10.46,
36518,1661619807634,-1.1524,0.0143,0.4396,-15.97,3.6,-7.73,
36519,1661619807634,-1.064,-0.0179,0.3429,-12.46,2.41,-8.37,
36520,1661619807634,-1.1377,-0.1844,0.2692,-12.28,5.54,-7.08,
36521,1661619807634,-1.271,0.0212,0.4191,-15.97,12.05,-4.9,
36522,1661619807634,-1.1651,0.0402,0.3981,-18.09,12.22,-6.18,
36523,1661619807634,-1.1421,-0.1336,0.3112,-15.88,5.71,-0.16,
36524,1661619807634,-1.1109,0.0719,0.0001,-14.07,-7.07,-3.99,
36525,1661619807634,-0.9883,0.0754,-0.0062,-9.47,-4.78,3.49,
36526,1661619807634,-1.1743,-0.0902,0.3395,-8.57,0.21,4.41,
36527,1661619807634,-1.2129,0.2702,0.0768,-9.76,-4.7,-1.99,
36528,1661619807634,-1.2295,0.13,0.2448,-8.48,-2.58,4.04,
36529,1661619807634,-1.1997,0.0812,0.4479,-4.19,-2.24,-1.81,
36530,1661619807634,-1.0283,0.2697,0.1696,3.33,-12.06,2.85,
36531,1661619807634,-1.2813,0.3698,0.4044,6.52,-2.67,4.59,
36532,1661619807634,-1.0415,0.6701,0.5905,11.31,5.03,6.5,
36533,1661619807634,-1.0977,0.5143,0.2208,8.82,6.8,4.31,
36534,1661619807634,-1.0352,0.4923,0.15,9.02,13.06,8.24,
36535,1661619807634,-1.1211,0.7458,0.2487,8.43,6.73,6.77,
36536,1661619807634,-1.0464,0.5431,0.2701,14.3,12.56,9.23,
36537,1661619807634,-1.0093,0.8039,0.087,21.52,-1.56,3.22,
36538,1661619807634,-0.9566,1.0041,-0.1112,26.81,6.13,1.31,
36539,1661619807634,-0.9219,0.7077,0.2023,33.6,8.93,3.95,
36540,1661619807634,-0.875,0.8805,-0.0355,34.21,12.82,5.05,
36541,1661619807634,-0.7661,0.984,-0.0795,32.23,8.93,7.32,
36542,1661619807634,-0.9356,0.8498,0.0426,33.71,11.03,-0.25,
36543,1661619807634,-1.0059,0.5978,0.2301,39.42,8.67,2.39,
36544,1661619807634,-1.002,0.3385,0.0861,40.8,5.97,5.4,
36545,1661619807634,-0.8882,0.7116,-0.0409,44.5,-0.63,-2.71,
36546,1661619807634,-0.874,0.3786,-0.182,41.2,-4.52,1.75,
36547,1661619807634,-0.877,0.1706,0.1017,42.21,6.47,2.85,
36548,1661619807634,-0.8374,0.4064,-0.1361,39.31,0.38,-0.07,
36549,1661619807634,-0.7334,-0.076,-0.3524,46.21,8.83,5.76,
36550,1661619807634,-0.6797,0.0841,-0.1073,42.99,-4.11,1.84,
36551,1661619807649,-0.7808,0.2194,-0.0643,37.91,-16.54,7.41,
36552,1661619807649,-0.7998,-0.0174,0.09,35.8,-21.01,3.86,
36553,1661619807649,-0.7998,0.1286,-0.3187,40.8,-19.5,1.75,
36554,1661619807649,-0.7124,-0.2191,-0.1234,36.7,-1.56,4.68,
36555,1661619807649,-0.9243,0.0671,0.3663,26.52,-0.38,3.31,
36556,1661619807649,-0.7715,0.0524,-0.2836,25.5,-9.1,2.21,
36557,1661619807649,-0.8921,-0.263,-0.3475,30.81,-6.04,4.68,
36558,1661619807649,-0.9331,0.1261,0.2081,29.51,2.58,-2.8,
36559,1661619807649,-0.9185,0.1125,-0.2079,25.3,-4.27,-3.71,
36560,1661619807649,-0.8574,-0.3968,-0.0018,15.8,-1.56,-4.26,
36561,1661619807649,-0.8457,-0.1092,0.0646,15.7,-11.72,-4.99,
36562,1661619807649,-0.8589,-0.287,-0.1561,23.01,-9.1,-8.09,
36563,1661619807649,-0.9077,-0.0453,0.2545,11.4,-1.98,-11.37,
36564,1661619807649,-1.0293,-0.6444,0.1378,7.72,-4.7,-16.76,
36565,1661619807649,-1.0689,-0.7606,-0.1009,6.61,-11.72,-13.94,
36566,1661619807649,-0.9361,-0.1771,0.1285,8.32,0.64,-17.22,
36567,1661619807649,-0.94,-0.6341,0.2921,3.62,1.74,-10.55,
36568,1661619807649,-0.8926,-0.7098,-0.3656,-7.4,-6.81,-12.01,
36569,1661619807649,-0.898,-0.513,0.0968,-11.18,-1.39,-8.18,
36570,1661619807649,-1.1763,-0.7118,0.1969,-9.6,-14.08,-11.74,
36571,1661619807649,-1.0801,-0.4618,-0.2948,-11.47,-23.97,-10.01,
36572,1661619807649,-1.2329,-0.554,0.5822,-17.27,-3.17,-6.81,
36573,1661619807649,-1.2813,-0.2069,0.3781,-18.26,-11.55,-4.63,
36574,1661619807649,-1.1455,-0.3177,0.2023,-15.09,-14.42,-1.9,
36575,1661619807649,-1.1885,0.0177,1.1017,-18.67,3.34,-1.99,
36576,1661619807649,-1.1934,-0.1766,0.0753,-17.68,-3.17,0.21,
36577,1661619807649,-1.25,-0.3861,0.0197,-19.57,8.76,1.03,
36578,1661619807649,-1.2056,0.2511,0.8908,-18.77,10.62,-4.54,
36579,1661619807649,-1.2202,0.3048,0.1295,-9.98,-1.56,-1.26,
36580,1661619807649,-1.0982,0.1628,-0.1039,-12.59,-2.75,-2.08,
36581,1661619807649,-1.0532,0.3835,0.4596,-12.77,6.13,-1.44,
36582,1661619807649,-1.1275,0.0817,0.0343,-8.98,-2.84,1.66,
36583,1661619807649,-1.1353,0.3713,-0.1395,-7.78,-3.42,-1.44,
36584,1661619807649,-1.0855,0.714,0.6041,-2.68,4.44,4.59,
36585,1661619807649,-1.1382,0.2912,0.4498,-3.37,5.03,2.21,
36586,1661619807665,-1.0899,0.4674,-0.0218,0.51,8.42,-0.52,
36587,1661619807665,-1.0943,0.3483,0.4747,9.1,17.13,5.67,
36588,1661619807665,-1.0835,0.4342,0.5407,6.64,14.75,0.67,
36589,1661619807665,-1.1524,0.5387,0.027,9.43,6.47,5.23,
36590,1661619807665,-1.103,0.1769,0.1246,9.81,6.56,7.23,
36591,1661619807665,-1.105,0.342,0.2614,11.23,2.75,3.49,
36592,1661619807665,-1.0733,0.5539,0.0304,17.31,5.46,6.86,
36593,1661619807665,-1.1831,0.1559,0.0011,21.72,3.08,5.67,
36594,1661619807665,-0.9307,0.7082,0.153,21.21,3.51,6.86,
36595,1661619807665,-0.8853,0.7257,0.1881,24.51,2.41,3.95,
36596,1661619807665,-1.1113,0.3922,0.3522,24.0,4.18,5.4,
36597,1661619807665,-0.9131,0.5827,0.0773,28.23,-5.88,7.5,
36598,1661619807665,-0.9224,0.4875,0.1749,29.91,2.75,7.69,
36599,1661619807665,-0.8291,0.7585,0.2614,34.29,3.43,4.68,
36600,1661619807665,-0.9737,0.6593,-0.2552,40.7,6.64,6.22,
36601,1661619807665,-0.7949,0.1789,-0.0555,38.39,21.53,3.67,
36602,1661619807665,-0.8159,1.1642,-0.0253,34.52,15.35,-1.16,
36603,1661619807665,-0.939,0.38,-0.4584,42.79,7.74,3.86,
36604,1661619807665,-0.6787,0.0456,-0.4281,42.09,-8.07,-4.17,
36605,1661619807665,-0.6206,0.6838,0.2052,39.72,-1.56,-2.45,
36606,1661619807665,-0.792,0.5968,0.0236,40.61,-18.05,-4.99,
36607,1661619807665,-0.791,0.5387,-0.5218,45.7,-8.24,-9.19,
36608,1661619807665,-0.8096,0.151,0.6422,47.52,20.09,-3.35,
36609,1661619807665,-0.9141,0.1745,-0.2225,43.11,6.39,-8.73,
36610,1661619807665,-0.752,0.424,-0.5658,42.91,3.84,-8.46,
36611,1661619807665,-0.9009,-0.16,0.3204,41.31,2.91,-8.27,
36612,1661619807665,-0.9732,-0.2347,0.0846,34.69,-6.55,-8.46,
36613,1661619807665,-0.8731,-0.0892,-0.7543,32.92,-11.96,-6.9,
36614,1661619807665,-0.8662,-0.6117,0.2838,27.61,6.73,-7.18,
36615,1661619807665,-0.7598,-0.1585,-0.202,20.1,-18.98,-4.17,
36616,1661619807665,-0.9121,-0.5702,-0.3216,16.01,-23.13,-2.26,
36617,1661619807665,-0.8633,-0.2264,0.2799,17.5,-17.72,0.03,
36618,1661619807665,-0.7686,-0.1942,0.0802,11.13,-22.54,0.03,
36619,1661619807680,-0.9995,-0.641,-0.1517,11.8,-12.89,-0.07,
36620,1661619807680,-0.9224,-0.2323,0.1876,10.71,-4.44,1.93,
36621,1661619807680,-1.0029,-0.5428,0.1261,15.41,-1.91,-0.34,
36622,1661619807680,-0.9863,-0.2616,0.1422,-1.97,-13.06,-6.72,
36623,1661619807680,-1.0601,-0.3289,0.2008,-3.37,-21.94,-2.61,
36624,1661619807680,-0.978,-0.6068,0.1173,-3.98,-5.8,-4.44,
36625,1661619807680,-0.9404,-0.0565,0.1749,-1.58,0.04,-7.82,
36626,1661619807684,-1.0654,-0.1761,0.2101,-6.77,-1.05,-3.25,
36627,1661619807684,-1.0879,-0.3978,0.0778,-11.17,-10.62,-4.54,
36628,1661619807684,-1.0904,-0.0638,0.1974,-12.28,0.04,-12.65,
36629,1661619807684,-1.2202,-0.2093,0.5548,-10.97,8.5,-15.84,
36630,1661619807684,-1.0596,-0.0897,0.1193,-11.38,11.03,-14.29,
36631,1661619807684,-1.1348,-0.3695,0.1769,-15.68,3.94,-11.28,
36632,1661619807684,-1.2144,-0.1312,0.5822,-11.17,-1.31,-10.82,
36633,1661619807684,-1.125,-0.286,0.0934,-13.29,4.27,-10.11,
36634,1661619807684,-1.1597,-0.3055,0.0592,-21.38,7.32,-7.18,
36635,1661619807684,-1.1602,0.0788,0.403,-22.37,-4.18,-2.98,
36636,1661619807684,-1.3237,-0.3499,0.3966,-19.79,-10.44,-1.07,
36637,1661619807684,-1.0962,0.0436,0.0153,-12.05,-11.8,0.67,
36638,1661619807684,-1.0791,0.1921,0.0812,-12.28,-0.98,0.39,
36639,1661619807684,-1.231,0.1574,0.63,-10.69,9.43,3.95,
36640,1661619807684,-1.0464,0.2336,0.2706,-5.64,4.96,3.31,
36641,1661619807684,-1.1699,0.1828,0.1871,-5.99,4.61,1.12,
36642,1661619807684,-1.1148,0.4562,0.3317,-5.19,-3.01,1.12,
36643,1661619807684,-1.0987,0.5299,0.2907,3.83,-0.38,4.77,
36644,1661619807684,-1.0362,0.1847,0.2955,3.33,6.22,4.04,
36645,1661619807684,-1.0288,0.8839,-0.0594,6.11,1.65,4.68,
36646,1661619807684,-1.0308,0.8673,-0.0531,10.61,10.02,10.05,
36647,1661619807684,-1.1006,0.4733,0.3663,11.03,7.99,11.15,
36648,1661619807684,-1.0835,0.7555,0.2277,10.84,4.36,5.76,
36649,1661619807684,-1.0249,0.8566,0.07,13.61,2.67,5.14,
36650,1661619807684,-1.0269,0.9259,0.297,25.32,13.58,5.05,
36651,1661619807684,-0.9243,0.86,0.3156,32.31,20.34,3.12,
36652,1661619807684,-0.9014,0.6427,-0.016,33.31,15.11,1.31,
36653,1661619807684,-0.8579,0.8776,-0.0477,32.5,15.18,-2.98,
36654,1661619807684,-0.9976,0.4137,0.1149,37.11,12.14,-1.99,
36655,1661619807684,-0.9751,0.4381,-0.1127,37.58,2.24,3.22,
36656,1661619807684,-0.958,0.6144,-0.1942,36.0,-5.63,4.41,
36657,1661619807684,-0.8672,0.2736,-0.0331,36.29,-2.67,6.68,
36658,1661619807684,-0.8565,0.2384,-0.0946,37.72,-5.97,2.02,
36659,1661619807684,-0.8355,0.3195,0.0778,39.58,2.33,2.48,
36660,1661619807684,-1.0855,0.1266,-0.1107,39.61,-4.94,1.31,
36661,1661619807699,-0.8228,0.2521,-0.0316,35.8,-7.31,-1.35,
36662,1661619807699,-0.728,0.2804,0.1881,37.22,-10.79,7.5,
36663,1661619807699,-0.7608,0.3625,0.0992,36.3,-5.28,-1.16,
36664,1661619807699,-0.6904,0.008,-0.6498,40.59,-11.12,2.76,
36665,1661619807699,-0.8267,0.0505,0.2745,39.2,13.99,-2.61,
36666,1661619807699,-0.8169,0.4787,-0.1346,39.2,-3.94,1.38,
36667,1661619807699,-0.8853,0.1115,-0.555,34.69,-9.43,-0.71,
36668,1661619807699,-0.7466,-0.1136,-0.1395,28.9,-16.62,-5.27,
36669,1661619807699,-0.9258,0.193,0.2399,30.41,-2.08,-5.73,
36670,1661619807699,-0.9263,0.0031,-0.0238,30.02,2.15,-10.55,
36671,1661619807699,-0.9346,0.0339,0.2282,20.21,2.58,-12.93,
36672,1661619807699,-0.9209,-0.2938,0.2369,19.01,-5.63,-8.0,
36673,1661619807699,-0.919,0.0861,-0.1175,20.4,-5.63,-12.84,
36674,1661619807699,-0.9658,-0.2567,0.1012,24.83,3.94,-13.2,
36675,1661619807699,-0.9082,-0.5653,0.0587,13.81,-0.38,-10.2,
36676,1661619807699,-0.982,-0.4652,-0.3251,7.62,-15.35,-9.65,
36677,1661619807699,-1.044,-0.4891,-0.1014,11.71,-4.52,-2.52,
36678,1661619807699,-0.9912,-0.6195,0.0104,9.81,-10.03,-8.46,
36679,1661619807699,-0.833,-0.6419,-0.3495,-3.48,-16.71,-6.99,
36680,1661619807699,-0.9668,-0.8407,0.191,-8.37,-19.67,-9.74,
36681,1661619807699,-0.9966,-0.4476,0.1852,-7.09,-13.58,-3.99,
36682,1661619807699,-1.1778,-0.6336,0.2223,-13.06,-8.33,-1.16,
36683,1661619807699,-1.1358,-0.2889,0.4347,-18.37,-11.03,-1.35,
36684,1661619807699,-1.1001,-0.3485,0.3253,-10.57,-11.46,-3.53,
36685,1661619807699,-1.167,-0.1771,0.339,-12.37,1.48,-1.53,
36686,1661619807699,-1.126,0.048,0.2213,-17.26,-1.31,-2.89,
36687,1661619807699,-1.2422,-0.2176,0.3688,-16.28,17.04,0.03,
36688,1661619807699,-1.0972,0.1081,0.4342,-14.17,-4.61,-4.54,
36689,1661619807699,-1.0957,0.0729,-0.08,-15.36,-8.33,-3.99,
36690,1661619807699,-1.1411,-0.0579,0.3512,-14.87,0.12,-7.36,
36691,1661619807699,-1.1987,0.3185,0.4342,-19.47,10.02,-5.82,
36692,1661619807699,-1.1094,0.0402,0.2267,-18.77,-2.49,-5.64,
36693,1661619807699,-1.1553,0.403,0.4083,-14.28,1.14,-7.27,
36694,1661619807699,-1.0874,0.4455,0.444,-4.47,4.44,-6.44,
36695,1661619807715,-1.1587,0.1266,0.2106,-4.68,11.96,-1.71,
36696,1661619807715,-1.1006,0.4123,0.4406,-5.48,13.24,-0.52,
36697,1661619807715,-1.1094,0.1662,0.1154,-8.18,6.04,1.12,
36698,1661619807715,-1.022,0.2482,0.0211,-3.38,-1.15,1.75,
36699,1661619807715,-1.1045,0.4596,0.1432,4.63,5.11,0.21,
36700,1661619807715,-1.1489,0.1486,0.1808,6.72,4.7,7.32,
36701,1661619807715,-1.167,0.3288,-0.0819,11.23,-2.41,2.57,
36702,1661619807715,-1.1196,0.3097,0.4054,8.21,5.8,3.86,
36703,1661619807715,-1.1973,0.1925,0.4684,7.2,4.36,6.5,
36704,1661619807715,-1.1123,0.4118,0.1871,7.81,3.6,2.12,
36705,1661619807715,-1.1289,0.549,0.3629,12.39,6.39,3.95,
36706,1661619807715,-1.0474,0.6603,0.5768,16.44,15.85,4.59,
36707,1661619807715,-1.0108,0.6198,0.1603,27.1,6.97,4.04,
36708,1661619807715,-1.1143,0.2282,0.1554,28.61,23.22,5.23,
36709,1661619807715,-0.7984,1.0597,0.2936,27.21,15.35,2.21,
36710,1661619807715,-0.8174,1.1203,-0.1307,27.0,3.25,-1.44,
36711,1661619807715,-0.8233,0.4684,-0.1478,30.31,2.5,7.87,
36712,1661619807715,-0.8198,0.6823,-0.2733,35.49,0.98,1.22,
36713,1661619807715,-0.8228,0.6994,0.0553,37.19,5.11,0.48,
36714,1661619807715,-0.9966,0.8488,-0.1805,40.09,-3.59,3.86,
36715,1661619807715,-0.8745,0.8337,-0.0609,39.32,1.14,-1.26,
36716,1661619807715,-0.853,0.3327,0.1593,38.99,4.53,1.22,
36717,1661619807715,-0.8511,0.7541,-0.142,44.19,5.29,-2.71,
36718,1661619807715,-0.8804,0.3893,0.0753,52.9,12.05,0.3,
36719,1661619807715,-0.8203,0.1789,0.2365,49.11,18.98,-3.71,
36720,1661619807715,-0.8018,0.3307,-0.2157,42.09,-2.84,-6.44,
36721,1661619807715,-0.8819,-0.1214,-0.4188,43.31,-8.24,-2.71,
36722,1661619807715,-0.9966,-0.0614,0.0841,42.8,-10.62,-7.18,
36723,1661619807715,-0.8242,-0.0037,-0.37,38.2,-10.03,-2.89,
36724,1661619807729,-0.8833,-0.4344,-0.309,32.41,-10.19,2.48,
36725,1661619807729,-0.8521,-0.1634,0.0905,32.02,-9.17,3.58,
36726,1661619807729,-0.832,-0.4915,-0.0609,27.32,-15.61,2.39,
36727,1661619807729,-0.8369,0.0329,0.1276,19.52,-10.27,-3.53,
36728,1661619807729,-0.791,0.0915,0.1461,18.11,-13.06,-3.07,
36729,1661619807729,-0.9351,-0.5916,-0.0272,17.31,-1.56,-5.73,
36730,1661619807729,-0.7627,-0.1029,0.046,15.72,-6.81,-8.27,
36731,1661619807729,-0.9654,-0.3265,-0.016,15.72,-10.96,-4.9,
36732,1661619807729,-0.959,-0.2796,-0.2152,14.51,-22.46,-7.36,
36733,1661619807729,-1.0415,-0.1952,0.2296,7.31,-3.08,-9.56,
36734,1661619807729,-1.0059,-0.349,0.0109,2.92,-12.06,-10.37,
36735,1661619807729,-0.9522,-0.2054,0.1193,-0.7,-2.84,-9.65,
36736,1661619807729,-1.0703,-0.5286,0.5651,-1.58,-10.44,-9.1,
36737,1661619807735,-0.9092,-0.1317,0.0304,-4.67,-11.63,-6.63,
36738,1661619807735,-0.9126,-0.1693,-0.0199,-2.77,4.18,-8.64,
36739,1661619807735,-1.1211,-0.534,0.3424,-5.77,11.89,-5.64,
36740,1661619807735,-1.044,-0.1654,0.1744,-11.46,2.75,-12.01,
36741,1661619807735,-1.1348,-0.4618,0.1339,-13.27,3.6,-6.54,
36742,1661619807735,-1.1187,-0.3748,-0.0658,-13.78,-11.12,-12.93,
36743,1661619807735,-1.0498,-0.3787,0.1608,-16.28,-1.15,-1.26,
36744,1661619807735,-1.249,-0.3651,0.3742,-18.55,-9.69,-9.28,
36745,1661619807735,-1.0552,-0.1561,0.028,-18.29,-10.62,-5.27,
36746,1661619807735,-1.2295,-0.4583,0.6061,-23.56,-5.2,-2.71,
36747,1661619807735,-1.2144,0.0182,0.526,-24.27,-5.45,0.85,
36748,1661619807735,-1.2193,-0.0472,0.3317,-16.28,-7.07,0.3,
36749,1661619807735,-1.2373,-0.0081,0.6217,-15.67,3.17,1.57,
36750,1661619807735,-1.0576,0.3595,0.3893,-13.47,-6.73,0.21,
36751,1661619807735,-1.2266,0.0988,0.2975,-9.08,6.47,2.48,
36752,1661619807735,-1.1655,0.3825,0.2872,-6.07,3.08,-1.62,
36753,1661619807735,-1.0386,0.2629,-0.1942,-3.6,1.81,3.31,
36754,1661619807735,-1.0298,0.3063,0.1115,-5.06,4.27,7.69,
36755,1661619807735,-1.105,0.7306,0.2775,-0.67,-1.48,0.94,
36756,1661619807735,-1.0156,0.361,-0.2089,4.21,-7.66,3.67,
36757,1661619807735,-1.2007,0.6515,0.2892,6.41,-3.01,4.22,
36758,1661619807735,-1.1485,0.9196,0.6754,6.93,4.7,-3.16,
36759,1661619807735,-1.1553,0.4821,0.36,10.93,6.47,-0.98,
36760,1661619807735,-1.0376,0.6857,0.3043,13.72,20.09,2.39,
36761,1661619807735,-1.0352,0.7326,0.3322,18.11,24.66,-2.26,
36762,1661619807735,-1.0357,0.6237,0.1432,26.51,23.89,0.39,
36763,1661619807735,-1.0459,0.6335,0.0182,25.81,16.88,0.39,
36764,1661619807735,-0.9859,0.4953,-0.0585,27.71,13.06,6.13,
36765,1661619807735,-0.9927,0.5724,-0.2591,28.02,-4.27,6.13,
36766,1661619807735,-0.959,0.5299,-0.118,28.22,-2.08,8.97,
36767,1661619807749,-0.9317,0.2858,-0.0433,32.6,-9.69,14.52,
36768,1661619807749,-0.9326,0.3732,-0.1605,30.83,-3.01,12.8,
36769,1661619807749,-0.7466,0.3337,-0.0331,36.9,-13.66,11.61,
36770,1661619807749,-1.0801,0.2345,0.4308,37.69,-7.74,13.61,
36771,1661619807749,-0.9009,0.5993,0.4552,37.1,1.14,9.23,
36772,1661619807749,-0.8711,0.3683,-0.3553,40.3,6.13,13.24,
36773,1661619807749,-0.6314,0.4865,0.2389,41.51,13.15,11.52,
36774,1661619807749,-0.9029,0.3146,0.3781,37.02,12.14,9.78,
36775,1661619807749,-0.6841,0.1891,-0.2123,39.32,-2.24,7.59,
36776,1661619807749,-0.5484,0.5461,-0.8197,41.49,-21.1,1.84,
36777,1661619807749,-0.8003,0.1984,0.3004,45.11,-5.28,1.22,
